class,time,fsr1,fsr2,fsr3,fsr4,angle,accx,accy,accz,gyro1,gyro2,gyro3,orient1,orient2,orient3,acc2x,acc2y,acc2z,participant,serialnumber
0,925477.0,57.0,41.0,1.0,0.0,1915.0,0.24,0.37,0.19,0.0,0.04,-0.73,70.5,14.31,95.69,2.68,-9.07,-0.74,1,550
0,925696.0,27.0,25.0,0.0,3.0,1868.0,0.33,0.05,-0.03,-0.01,0.02,-0.66,77.87,20.81,95.0,3.81,-9.07,-0.84,1,550
0,925920.0,25.0,7.0,0.0,4.0,1926.0,0.64,0.35,0.23,-0.05,-0.02,-0.58,85.0,27.81,95.69,3.54,-8.5,-0.72,1,550
0,926139.0,23.0,1813.0,0.0,5.0,1800.0,0.81,0.53,0.45,-0.09,-0.09,-0.79,92.62,35.31,97.19,6.48,-7.4,-0.54,1,550
0,926358.0,28.0,1166.0,2.0,3.0,1652.0,0.29,0.57,0.27,-0.16,-0.03,-1.11,104.75,46.44,100.5,7.4,-6.06,-0.96,1,550
0,926579.0,27.0,9.0,4.0,0.0,1503.0,-0.35,0.58,0.12,-0.19,0.05,-1.19,121.37,60.25,106.5,8.16,-4.07,-1.25,1,550
0,926798.0,29.0,13.0,0.0,0.0,1327.0,0.37,0.35,0.06,-0.11,-0.01,-1.02,136.56,72.69,119.62,9.74,-2.17,-1.38,1,550
0,927021.0,30.0,3.0,0.0,10.0,1355.0,1.96,0.44,-0.34,0.07,0.03,0.15,142.0,77.06,127.81,10.32,-1.58,-1.19,1,550
0,927241.0,25.0,7.0,1.0,8.0,1485.0,0.01,0.23,0.17,0.16,0.04,1.05,130.37,68.62,108.06,9.14,-3.15,-0.93,1,550
0,927459.0,29.0,11.0,0.0,1.0,1619.0,-0.07,0.13,0.17,0.13,0.02,0.83,117.69,58.0,100.44,8.24,-4.97,-0.77,1,550
0,927675.0,31.0,17.0,0.0,0.0,1615.0,-0.75,0.0,0.19,0.09,0.03,0.98,106.44,47.88,96.69,6.46,-6.6,-0.56,1,550
0,927895.0,29.0,10.0,0.0,4.0,1740.0,-0.29,0.34,0.39,0.04,0.0,0.95,94.75,36.81,94.87,5.58,-7.47,-0.27,1,550
0,928111.0,30.0,0.0,0.0,4.0,2030.0,-0.2,0.42,0.16,-0.02,-0.0,0.85,83.5,25.87,94.12,4.08,-8.37,-0.47,1,550
0,928333.0,28.0,2291.0,0.0,1.0,1867.0,-1.91,0.38,0.29,-0.05,-0.03,-0.01,77.06,20.19,94.44,1.47,-8.78,-0.42,1,550
0,928552.0,29.0,2825.0,0.0,0.0,1937.0,-0.35,0.26,0.24,-0.08,-0.02,-0.64,82.44,25.44,95.5,3.86,-8.54,-0.6,1,550
0,928770.0,27.0,3183.0,0.0,1.0,1830.0,0.07,0.16,0.3,-0.08,-0.04,-0.68,90.62,33.19,97.06,5.45,-7.97,-0.7,1,550
0,928990.0,28.0,3125.0,1.0,0.0,1704.0,-0.36,0.19,0.29,-0.11,-0.03,-0.75,99.0,41.0,99.06,6.12,-7.06,-0.88,1,550
0,929207.0,35.0,2635.0,0.0,2.0,1579.0,-0.43,0.33,0.2,-0.13,-0.03,-0.83,108.94,49.75,102.5,7.09,-5.78,-1.17,1,550
0,929424.0,27.0,2633.0,0.0,0.0,1389.0,0.24,0.47,0.12,-0.17,-0.1,-1.06,122.5,61.25,111.06,8.62,-3.97,-1.59,1,550
0,929644.0,23.0,23.0,3.0,0.0,1465.0,0.29,0.05,-0.03,0.0,0.08,-0.08,131.25,68.31,114.0,9.41,-3.24,-1.51,1,550
0,929859.0,28.0,17.0,1.0,0.0,1533.0,0.61,0.41,0.13,0.17,0.06,0.95,125.06,63.63,106.94,9.36,-3.83,-1.12,1,550
0,930075.0,27.0,5.0,0.0,5.0,1525.0,-0.19,0.43,0.19,0.12,0.04,0.86,112.0,52.44,99.75,7.21,-5.83,-0.77,1,550
0,930298.0,25.0,3.0,2.0,9.0,1835.0,-0.18,0.37,0.27,0.09,0.01,0.78,101.19,42.63,96.37,6.05,-7.1,-0.59,1,550
0,930515.0,25.0,0.0,0.0,0.0,1941.0,-0.24,0.23,0.31,0.03,0.02,0.75,91.56,33.31,94.62,5.2,-7.97,-0.4,1,550
0,930735.0,35.0,36.0,0.0,7.0,1881.0,-0.78,0.26,0.43,-0.07,-0.01,0.28,83.44,24.94,94.25,3.35,-8.6,-0.22,1,550
0,930950.0,37.0,27.0,0.0,0.0,1819.0,0.21,0.37,0.26,-0.08,-0.09,-0.57,86.06,27.75,95.56,4.82,-8.23,-0.59,1,550
0,931168.0,39.0,1736.0,1.0,0.0,1694.0,-0.44,0.1,0.2,-0.11,-0.02,-0.51,92.69,34.06,97.31,5.09,-7.92,-0.83,1,550
0,931387.0,25.0,2201.0,0.0,1.0,1763.0,-0.25,0.16,0.21,-0.08,-0.02,-0.56,99.56,40.25,99.37,6.08,-7.21,-1.01,1,550
0,931603.0,29.0,2171.0,1.0,0.0,1592.0,0.27,0.48,0.22,-0.06,-0.01,-0.83,109.44,49.44,102.5,7.72,-5.73,-1.15,1,550
0,931822.0,25.0,2537.0,0.0,5.0,1493.0,0.4,0.16,0.07,-0.08,-0.03,-0.71,119.94,58.81,108.0,8.79,-4.65,-1.49,1,550
0,932042.0,25.0,2862.0,0.0,1.0,1250.0,0.33,0.02,0.0,0.07,0.05,-0.12,126.12,64.37,112.75,9.18,-3.87,-1.63,1,550
0,932261.0,39.0,1115.0,2.0,1.0,1357.0,0.33,0.06,0.24,0.14,0.08,0.6,120.94,61.06,105.87,8.89,-4.54,-1.03,1,550
0,932487.0,26.0,851.0,1.0,1.0,1497.0,0.08,0.09,0.25,0.07,0.02,0.67,111.44,52.88,100.19,7.91,-5.72,-0.79,1,550
0,932706.0,34.0,1506.0,1.0,2.0,1629.0,-0.35,0.36,0.08,0.1,0.05,0.9,101.37,43.5,97.06,6.39,-6.69,-0.79,1,550
0,932930.0,22.0,1716.0,0.0,3.0,1768.0,-0.35,0.16,0.38,0.1,0.03,0.9,89.62,32.31,94.44,4.81,-8.13,-0.25,1,550
0,933148.0,31.0,6.0,1.0,1.0,2031.0,-0.46,0.19,0.28,0.02,0.03,0.34,82.19,24.75,93.12,3.64,-8.7,-0.21,1,550
0,933364.0,33.0,11.0,1.0,3.0,1875.0,0.91,0.3,0.49,-0.01,-0.05,-0.44,81.87,24.56,92.87,5.03,-8.58,0.03,1,550
0,933582.0,24.0,6.0,1.0,6.0,1891.0,0.17,0.19,0.49,-0.13,-0.02,-0.86,89.31,32.13,94.12,5.45,-8.04,-0.11,1,550
0,933801.0,40.0,11.0,1.0,7.0,1593.0,-0.12,0.34,0.16,-0.19,0.09,-1.13,104.06,44.75,96.94,6.78,-6.56,-0.68,1,550
0,934020.0,27.0,19.0,3.0,0.0,1671.0,0.5,0.03,-0.37,-0.11,0.03,-0.71,117.37,56.31,100.5,6.81,-5.77,-1.08,1,550
0,934238.0,27.0,10.0,0.0,0.0,1334.0,0.73,0.07,-0.07,-0.04,-0.01,-0.58,126.81,64.81,105.87,9.61,-3.93,-1.22,1,550
0,934460.0,28.0,285.0,1.0,0.0,1384.0,-0.43,-0.02,0.15,0.03,-0.11,-0.52,132.37,70.12,112.87,9.37,-2.98,-1.22,1,550
0,934685.0,33.0,757.0,0.0,3.0,1271.0,0.01,-0.07,0.09,0.15,0.05,0.94,130.31,69.12,112.25,9.15,-3.39,-1.22,1,550
0,934903.0,36.0,2536.0,2.0,2.0,1414.0,-0.43,0.02,0.33,0.06,-0.01,0.87,116.31,57.13,103.19,7.8,-4.95,-1.09,1,550
0,935125.0,41.0,2596.0,3.0,1.0,1557.0,0.32,0.4,-0.05,0.1,0.01,0.81,105.94,47.56,99.44,7.5,-6.17,-1.13,1,550
0,935344.0,36.0,2531.0,1.0,0.0,1693.0,0.47,0.28,0.44,0.25,0.02,0.84,94.19,37.38,94.94,6.62,-7.2,-0.21,1,550
0,935566.0,35.0,246.0,0.0,3.0,1817.0,-1.32,0.29,0.46,0.08,0.04,0.47,84.19,28.12,91.87,3.26,-8.36,0.19,1,550
0,935786.0,28.0,3.0,0.0,0.0,2053.0,-0.75,0.08,0.3,0.03,0.05,-0.26,83.94,27.37,91.06,3.78,-8.6,0.14,1,550
0,936002.0,25.0,0.0,0.0,23.0,2003.0,-0.21,0.31,-0.2,-0.08,-0.02,-0.63,89.5,32.5,91.0,5.06,-7.94,-0.34,1,550
0,936217.0,53.0,7.0,0.0,0.0,1686.0,-1.63,0.17,0.68,-0.09,0.0,-0.75,96.94,39.38,91.94,4.64,-7.35,0.41,1,550
0,936433.0,37.0,11.0,0.0,5.0,1545.0,-2.67,-0.26,0.15,-0.11,0.09,-0.91,109.19,50.31,94.06,5.49,-6.42,0.1,1,550
0,936650.0,31.0,17.0,0.0,0.0,1400.0,2.11,0.56,-0.14,-0.04,-0.01,-1.02,123.5,63.5,96.69,10.89,-3.78,-0.65,1,550
0,936864.0,33.0,19.0,0.0,0.0,1277.0,2.07,0.39,-0.06,-0.06,-0.14,-0.25,131.62,71.19,102.94,11.36,-2.65,-0.78,1,550
0,937084.0,22.0,2958.0,2.0,0.0,1428.0,-0.31,0.15,0.24,0.0,-0.18,0.54,127.19,67.06,108.62,8.7,-3.51,-0.99,1,550
0,937301.0,31.0,3100.0,0.0,0.0,1557.0,0.65,0.09,0.39,0.01,-0.01,0.56,119.56,59.88,105.5,9.13,-4.64,-0.92,1,550
0,937515.0,31.0,2924.0,0.0,0.0,1464.0,0.37,-0.27,0.1,0.06,0.08,0.86,111.75,52.38,102.25,8.09,-6.18,-1.16,1,550
0,937734.0,31.0,3213.0,0.0,1.0,1592.0,-1.53,-0.03,0.18,0.12,0.06,0.81,102.19,43.5,99.06,5.15,-7.1,-0.93,1,550
0,937954.0,38.0,3039.0,0.0,0.0,1721.0,-0.11,0.23,0.27,0.14,0.03,0.8,91.69,33.88,96.06,5.35,-7.85,-0.59,1,550
0,938169.0,31.0,487.0,1.0,3.0,1827.0,-0.86,0.21,0.39,0.06,0.03,0.44,82.94,25.62,93.87,3.33,-8.63,-0.19,1,550
0,938389.0,27.0,17.0,0.0,5.0,1895.0,-0.72,0.1,0.35,0.01,0.02,-0.17,81.37,23.69,93.19,3.23,-8.85,-0.14,1,550
0,938610.0,38.0,17.0,1.0,0.0,1782.0,-1.7,0.11,0.19,-0.03,-0.01,-0.57,87.44,29.5,93.87,3.17,-8.36,-0.38,1,550
0,938828.0,37.0,7.0,1.0,0.0,1676.0,0.33,0.49,0.18,-0.07,-0.02,-0.75,95.5,37.5,94.81,6.36,-7.2,-0.48,1,550
0,939047.0,28.0,7.0,0.0,2.0,1529.0,0.24,0.49,0.23,-0.1,0.08,-0.97,107.56,48.63,96.94,7.9,-5.88,-0.53,1,550
0,939264.0,39.0,27.0,0.0,0.0,1389.0,0.12,0.4,0.25,-0.13,-0.11,-0.97,120.19,59.81,99.94,8.68,-4.33,-0.76,1,550
0,939482.0,31.0,7.0,0.0,5.0,1253.0,-0.67,0.15,-0.17,-0.1,-0.02,-0.82,132.19,70.06,108.25,8.54,-3.01,-1.22,1,550
0,939702.0,23.0,0.0,1.0,6.0,1332.0,1.57,0.17,-0.25,0.03,0.03,0.2,138.5,75.31,118.62,11.05,-2.02,-1.44,1,550
0,939918.0,23.0,0.0,0.0,1.0,1447.0,-0.36,0.31,0.02,0.1,-0.09,0.99,128.69,67.37,108.0,8.65,-3.36,-1.13,1,550
0,940135.0,27.0,631.0,2.0,1.0,1480.0,0.23,0.5,0.05,0.13,-0.01,1.11,113.44,54.25,102.06,6.78,-5.36,-1.24,1,550
0,940354.0,36.0,2669.0,1.0,0.0,1604.0,-0.6,0.04,0.24,0.2,0.02,0.96,99.5,41.94,97.69,5.95,-7.17,-0.73,1,550
0,940568.0,38.0,1847.0,1.0,0.0,1753.0,-1.11,0.41,0.11,0.2,0.03,0.68,88.81,32.56,94.25,4.64,-8.07,-0.17,1,550
0,940787.0,26.0,6.0,1.0,0.0,1995.0,-1.39,0.09,0.5,0.12,0.09,0.34,81.81,26.31,91.25,2.93,-8.7,0.32,1,550
0,941005.0,28.0,13.0,0.0,8.0,1875.0,-1.06,0.07,0.15,-0.03,0.03,-0.14,81.56,25.62,90.75,3.17,-8.76,0.02,1,550
0,941219.0,19.0,10.0,1.0,0.0,1916.0,0.91,0.38,0.35,-0.05,-0.06,-0.52,86.94,30.87,91.87,6.0,-7.99,0.06,1,550
0,941438.0,27.0,13.0,0.0,0.0,1779.0,0.63,0.43,0.2,-0.15,-0.05,-0.99,96.75,40.31,93.87,5.35,-7.13,-0.44,1,550
0,941660.0,31.0,8.0,1.0,0.0,1487.0,-0.63,0.23,0.02,-0.14,0.1,-0.83,109.44,51.69,96.81,5.87,-5.93,-0.77,1,550
0,941877.0,48.0,3.0,0.0,9.0,1400.0,-0.35,0.25,0.01,-0.11,-0.01,-0.88,121.19,62.13,100.75,7.53,-4.31,-0.72,1,550
0,942100.0,29.0,13.0,1.0,0.0,1381.0,0.49,0.21,0.05,-0.1,-0.08,-0.65,131.5,71.06,107.94,9.77,-2.8,-0.92,1,550
0,942315.0,29.0,0.0,0.0,2.0,1214.0,-0.01,0.0,-0.06,-0.01,0.04,0.37,135.69,73.81,114.44,9.4,-2.48,-1.19,1,550
0,942531.0,47.0,20.0,0.0,9.0,1353.0,-0.63,0.03,0.0,0.1,-0.05,1.16,126.12,65.37,106.62,8.23,-3.97,-1.17,1,550
0,942748.0,30.0,2229.0,0.0,3.0,1519.0,-0.67,0.09,0.23,0.16,0.02,1.17,109.75,51.13,100.12,6.95,-5.96,-0.85,1,550
0,942962.0,31.0,2553.0,0.0,0.0,1671.0,-0.55,0.2,-0.05,0.19,0.08,0.94,98.0,40.5,96.19,4.8,-7.69,-0.95,1,550
0,943176.0,31.0,2493.0,1.0,0.0,1781.0,0.65,0.37,0.61,0.16,0.04,0.85,85.31,29.12,92.69,5.42,-8.18,0.2,1,550
0,943394.0,31.0,19.0,0.0,1.0,1884.0,-1.61,0.0,0.19,-0.01,0.07,0.02,80.25,23.75,91.56,2.33,-8.96,-0.05,1,550
0,943610.0,36.0,19.0,2.0,0.0,1861.0,1.93,0.61,0.3,-0.05,-0.02,-0.64,82.87,26.25,91.25,6.27,-8.17,0.1,1,550
0,943827.0,31.0,15.0,1.0,5.0,1736.0,0.35,0.43,0.39,-0.07,-0.02,-0.74,91.75,34.69,92.31,5.93,-7.61,0.06,1,550
0,944052.0,38.0,6.0,0.0,0.0,1587.0,1.26,0.63,0.11,-0.12,-0.08,-1.02,102.81,45.06,94.31,8.21,-6.26,-0.41,1,550
0,944270.0,24.0,17.0,0.0,10.0,1449.0,-0.96,0.07,-0.07,0.03,0.16,-0.88,116.12,57.25,96.75,8.12,-4.66,0.04,1,550
0,944490.0,37.0,17.0,0.0,7.0,1300.0,-1.14,0.05,0.48,-0.05,0.02,-0.87,129.12,69.69,100.31,9.9,-2.99,-0.5,1,550
0,944710.0,36.0,17.0,1.0,9.0,1179.0,1.84,0.3,-0.74,-0.17,-0.17,-0.57,139.87,78.56,114.25,11.45,-1.45,-1.54,1,550
0,944928.0,22.0,2.0,0.0,6.0,1381.0,0.72,0.26,0.14,0.06,-0.08,0.91,137.19,75.44,113.94,10.21,-1.98,-0.85,1,550
0,945146.0,44.0,21.0,4.0,0.0,1532.0,1.34,0.55,0.73,0.12,-0.23,1.13,122.69,62.69,104.31,10.01,-3.89,-0.39,1,550
0,945364.0,28.0,1263.0,1.0,0.0,1556.0,0.13,0.19,-0.2,0.14,-0.03,0.94,106.87,48.38,99.5,7.84,-6.16,-1.23,1,550
0,945581.0,17.0,2211.0,0.0,2.0,1701.0,0.39,0.17,0.24,0.03,-0.0,0.88,94.12,36.38,96.62,5.3,-7.57,-0.89,1,550
0,945801.0,27.0,1815.0,0.0,1.0,1819.0,-1.11,0.1,0.17,0.08,0.04,0.74,84.25,26.62,95.06,3.28,-8.62,-0.6,1,550
0,946015.0,27.0,23.0,2.0,0.0,1932.0,0.27,0.28,0.45,0.09,0.01,0.44,76.87,19.44,93.56,2.15,-9.0,-0.38,1,550
0,946230.0,29.0,1529.0,1.0,1.0,2040.0,-0.68,0.27,0.39,0.03,-0.07,-0.43,76.31,19.62,93.0,2.62,-8.94,-0.08,1,550
0,946451.0,27.0,406.0,1.0,0.0,1748.0,-1.18,0.31,0.2,0.01,-0.05,-1.13,84.75,28.69,92.94,3.52,-8.26,-0.23,1,550
0,946671.0,38.0,3.0,0.0,3.0,1575.0,-0.48,0.3,0.15,-0.06,0.06,-1.18,99.81,43.5,93.75,6.26,-6.79,-0.31,1,550
0,946891.0,31.0,27.0,2.0,5.0,1418.0,0.67,0.49,0.3,-0.08,0.1,-0.97,114.12,56.44,94.81,8.84,-4.9,-0.15,1,550
0,947112.0,29.0,5.0,4.0,9.0,1289.0,0.47,0.53,0.29,-0.07,0.06,-0.92,126.87,68.12,97.69,9.57,-3.08,-0.2,1,550
0,947324.0,21.0,0.0,0.0,7.0,1351.0,0.36,0.4,0.44,-0.08,0.02,-0.74,138.5,78.69,103.06,10.33,-1.13,-0.24,1,550
0,947541.0,29.0,17.0,1.0,0.0,1384.0,0.08,0.15,-0.31,-0.01,-0.07,0.5,139.44,78.62,105.19,9.69,-1.7,-0.81,1,550
0,947758.0,29.0,29.0,0.0,0.0,1529.0,0.52,0.48,0.0,0.08,-0.02,1.36,127.19,67.56,97.87,8.83,-3.47,-0.32,1,550
0,947975.0,29.0,1003.0,0.0,0.0,1576.0,-0.14,0.52,-0.05,0.05,-0.03,1.41,108.25,49.5,94.0,6.31,-6.13,-0.29,1,550
0,948194.0,31.0,653.0,1.0,0.0,1699.0,-0.42,0.38,0.18,0.1,-0.12,0.56,95.87,38.06,92.44,5.62,-7.32,-0.14,1,550
0,948415.0,36.0,7.0,0.0,5.0,1803.0,-0.73,0.08,0.18,0.07,-0.02,0.77,86.0,29.37,91.62,4.07,-8.45,-0.05,1,550
0,948631.0,31.0,23.0,0.0,17.0,1907.0,-1.02,0.12,0.34,-0.02,-0.04,0.18,79.0,22.75,91.12,2.75,-8.92,0.16,1,550
0,948849.0,47.0,27.0,7.0,0.0,1827.0,-0.57,0.41,0.35,-0.1,-0.02,-0.53,81.69,25.69,92.37,3.71,-8.38,-0.02,1,550
0,949068.0,30.0,0.0,0.0,0.0,1678.0,0.17,0.64,0.42,-0.12,0.01,-1.15,92.81,36.0,94.0,5.91,-6.9,-0.29,1,550
0,949287.0,39.0,29.0,0.0,0.0,1515.0,1.84,0.76,0.22,-0.09,0.02,-1.05,108.5,50.06,95.87,8.09,-5.49,-0.58,1,550
0,949506.0,30.0,21.0,1.0,0.0,1384.0,-0.17,0.67,0.1,0.01,0.01,-0.85,118.94,59.75,97.87,8.29,-4.21,-0.57,1,550
0,949724.0,35.0,19.0,0.0,0.0,1269.0,-0.65,0.19,0.3,0.06,0.19,-0.94,129.19,70.19,100.0,8.57,-3.07,-0.26,1,550
0,949945.0,25.0,0.0,4.0,0.0,1332.0,0.26,0.09,0.37,-0.03,0.12,-0.34,139.94,80.81,101.69,9.94,-1.42,0.05,1,550
0,950165.0,29.0,7.0,0.0,7.0,1378.0,0.87,0.14,-0.01,0.02,-0.09,0.92,136.56,76.62,106.19,10.42,-2.02,-0.64,1,550
0,950384.0,39.0,1784.0,1.0,0.0,1491.0,-0.94,0.64,-0.05,0.07,-0.03,2.14,113.31,55.56,96.25,7.14,-4.87,-0.66,1,550
0,950602.0,26.0,3359.0,0.0,0.0,1878.0,-1.42,0.05,0.25,-0.02,-0.04,1.04,94.12,37.0,95.06,4.4,-7.8,-0.44,1,550
0,950818.0,22.0,3189.0,0.0,3.0,2008.0,0.46,0.37,0.31,0.2,0.02,0.72,83.5,26.94,94.06,4.91,-8.34,-0.3,1,550
0,951035.0,31.0,1449.0,0.0,7.0,1894.0,0.27,0.26,0.55,0.13,0.02,0.52,75.62,20.31,91.5,3.68,-8.93,0.3,1,550
0,951252.0,40.0,431.0,0.0,0.0,1917.0,0.46,0.21,0.52,0.02,-0.03,-0.17,72.87,17.62,90.81,3.46,-9.12,0.38,1,550
0,951468.0,31.0,1559.0,0.0,0.0,1955.0,-0.41,0.34,0.45,-0.05,-0.03,-0.82,79.25,24.19,91.19,3.61,-8.59,0.26,1,550
0,951687.0,34.0,5.0,0.0,4.0,1639.0,-0.92,0.27,0.14,-0.15,-0.01,-1.23,92.31,36.81,92.81,4.95,-7.56,-0.24,1,550
0,951905.0,39.0,30.0,3.0,0.0,1469.0,-1.6,0.49,-0.11,-0.09,0.32,-1.22,110.0,52.63,94.37,6.25,-5.33,-0.55,1,550
0,952121.0,23.0,8.0,0.0,0.0,1558.0,-0.05,0.27,-0.22,-0.09,-0.03,-1.04,125.87,67.25,96.06,8.99,-3.5,-0.62,1,550
0,952340.0,37.0,16.0,0.0,0.0,1195.0,-0.25,0.28,0.39,-0.14,-0.06,-0.86,137.44,77.37,102.94,12.08,-1.27,-0.98,1,550
0,952564.0,31.0,0.0,0.0,0.0,1356.0,0.38,0.12,-0.18,-0.09,-0.17,0.1,146.0,83.37,174.62,10.71,-0.49,-1.01,1,550
0,952781.0,23.0,23.0,23.0,0.0,1433.0,0.69,0.13,0.12,0.13,-0.03,0.84,138.75,77.44,109.56,10.09,-1.92,-0.65,1,550
0,953000.0,23.0,1.0,0.0,0.0,1587.0,0.16,0.44,0.25,0.07,-0.01,1.42,123.06,63.5,99.37,9.29,-3.9,-0.46,1,550
0,953222.0,27.0,122.0,0.0,0.0,1649.0,-0.98,0.26,0.23,0.03,0.05,1.36,104.69,46.0,95.87,6.06,-6.5,-0.46,1,550
0,953439.0,21.0,0.0,0.0,4.0,1938.0,-1.67,0.31,0.13,-0.03,0.06,0.66,92.69,34.0,94.75,3.8,-7.78,-0.54,1,550
0,953659.0,21.0,19.0,0.0,14.0,2023.0,-0.68,0.22,0.05,-0.04,0.01,-0.02,89.87,30.94,94.56,4.36,-8.15,-0.62,1,550
0,953875.0,40.0,21.0,18.0,0.0,1820.0,-0.8,-0.05,0.3,0.0,0.02,-0.25,91.62,32.25,94.69,3.44,-8.38,-0.24,1,550
0,954090.0,37.0,17.0,2.0,0.0,1707.0,-1.61,0.07,0.69,-0.01,0.03,-0.76,99.12,39.56,95.56,5.33,-7.27,-0.05,1,550
0,954310.0,37.0,6.0,2.0,0.0,1561.0,-1.05,0.17,0.49,-0.01,0.1,-0.99,111.69,51.31,96.56,6.59,-5.9,-0.21,1,550
0,954525.0,29.0,13.0,0.0,16.0,1422.0,0.19,0.09,0.31,0.03,0.08,-1.02,123.81,62.94,97.12,10.75,-3.8,-0.58,1,550
0,954742.0,35.0,19.0,59.0,0.0,1276.0,0.31,0.02,0.2,-0.07,0.0,-0.89,136.19,74.87,100.81,11.1,-2.03,-0.49,1,550
0,954964.0,37.0,15.0,0.0,0.0,1178.0,-0.1,-0.03,-0.06,-0.03,-0.09,0.03,143.56,80.75,116.5,9.57,-1.44,-0.77,1,550
0,955181.0,28.0,7.0,1.0,0.0,1417.0,-0.48,-0.01,0.21,0.07,-0.08,0.73,137.37,75.31,108.75,9.0,-2.35,-0.57,1,550
0,955404.0,27.0,1201.0,0.0,0.0,1408.0,-0.39,0.37,0.15,0.02,-0.06,1.19,124.0,63.31,102.5,8.89,-3.96,-1.0,1,550
0,955627.0,31.0,2961.0,3.0,0.0,1567.0,-1.3,0.45,0.15,-0.0,-0.02,1.09,109.25,49.06,99.0,7.49,-6.38,-0.57,1,550
0,955842.0,30.0,2905.0,0.0,0.0,1704.0,-0.96,0.28,0.12,0.02,0.01,0.82,97.56,37.56,97.37,5.01,-7.42,-0.87,1,550
0,956064.0,39.0,13.0,0.0,0.0,1819.0,0.43,0.33,0.32,0.03,-0.01,0.46,89.44,29.62,96.19,5.29,-8.13,-0.59,1,550
0,956280.0,25.0,3.0,0.0,3.0,2085.0,-0.84,0.12,0.25,0.03,0.01,0.14,85.06,25.12,94.81,3.3,-8.72,-0.49,1,550
0,956501.0,36.0,19.0,0.0,0.0,1811.0,0.5,0.23,0.51,-0.03,-0.05,-0.85,89.19,29.56,95.19,5.33,-8.26,-0.26,1,550
0,956723.0,33.0,17.0,0.0,11.0,1675.0,-2.03,-0.11,-0.3,-0.03,0.11,-0.92,101.0,40.69,96.44,4.36,-7.49,-1.14,1,550
0,956936.0,31.0,26.0,0.0,5.0,1527.0,1.04,0.27,-0.26,0.05,0.09,-0.98,113.75,53.19,97.25,6.56,-6.07,-0.88,1,550
0,957155.0,38.0,13.0,5.0,29.0,1386.0,-1.66,-0.21,0.33,-0.02,-0.07,-0.87,124.44,63.69,98.62,8.34,-4.19,-0.49,1,550
0,957372.0,29.0,19.0,19.0,0.0,1247.0,-0.18,0.14,0.2,-0.09,-0.08,-0.71,133.94,72.56,104.44,9.19,-2.62,-0.54,1,550
0,957586.0,38.0,22.0,1.0,0.0,1179.0,0.63,0.12,0.03,-0.14,-0.21,-0.05,140.44,76.87,121.44,9.18,-2.09,-1.03,1,550
0,957809.0,28.0,10.0,1.0,0.0,1427.0,0.34,0.07,0.13,-0.0,0.03,0.63,136.94,73.25,113.69,9.72,-2.55,-0.99,1,550
0,958030.0,35.0,21.0,0.0,0.0,1559.0,-0.2,0.07,0.0,0.01,-0.04,1.11,126.37,63.31,105.94,9.07,-4.06,-1.2,1,550
0,958247.0,33.0,1487.0,0.0,11.0,1587.0,-0.06,0.21,0.22,0.06,-0.02,1.2,110.31,48.75,101.5,6.42,-6.21,-1.21,1,550
0,958466.0,26.0,1807.0,0.0,0.0,1743.0,0.36,0.2,0.03,0.11,0.05,1.03,96.37,35.44,98.44,6.04,-7.69,-1.14,1,550
0,958685.0,37.0,1295.0,0.0,1.0,1883.0,0.39,0.39,0.5,0.11,0.03,0.77,84.75,24.75,95.87,4.5,-8.46,-0.4,1,550
0,958906.0,26.0,13.0,0.0,1.0,1939.0,-0.93,0.26,0.27,0.01,-0.02,0.02,79.5,19.44,94.69,2.32,-8.95,-0.48,1,550
0,959125.0,22.0,1610.0,0.0,4.0,1990.0,-0.8,0.11,0.39,-0.1,-0.01,-0.73,83.25,23.56,95.37,3.11,-8.83,-0.45,1,550
0,959343.0,19.0,29.0,0.0,2.0,1816.0,-0.37,0.1,0.18,-0.13,-0.05,-1.23,95.12,34.75,97.56,5.31,-7.81,-0.89,1,550
0,959560.0,27.0,0.0,0.0,5.0,1499.0,0.48,0.35,0.21,-0.04,0.06,-1.3,111.81,50.06,100.25,8.08,-5.74,-0.91,1,550
0,959779.0,29.0,7.0,0.0,0.0,1354.0,0.68,0.16,0.21,-0.07,-0.01,-0.98,125.81,63.06,104.31,9.42,-4.13,-0.88,1,550
0,959995.0,30.0,30.0,0.0,7.0,1239.0,0.06,0.23,-0.08,-0.09,-0.04,-0.61,135.75,71.69,113.37,9.38,-2.58,-1.3,1,550
0,960213.0,38.0,23.0,0.0,0.0,1208.0,0.35,0.18,0.36,-0.03,0.12,0.33,139.94,74.06,123.06,9.78,-2.09,-1.09,1,550
0,960427.0,35.0,0.0,2.0,0.0,1327.0,0.9,0.28,0.11,0.05,-0.09,0.92,131.81,67.06,113.62,9.93,-3.2,-1.41,1,550
0,960640.0,52.0,21.0,1.0,0.0,1492.0,-0.35,0.08,0.16,0.09,0.01,1.17,117.12,54.38,106.31,8.13,-5.26,-1.45,1,550
0,960858.0,29.0,697.0,0.0,1.0,1867.0,-0.54,0.62,0.16,0.11,0.05,1.01,103.44,42.0,101.56,6.01,-6.51,-1.29,1,550
0,961076.0,23.0,7.0,0.0,0.0,1747.0,-0.41,0.13,0.19,0.07,0.02,0.66,93.06,32.5,98.94,4.8,-8.06,-1.09,1,550
0,961292.0,41.0,27.0,5.0,0.0,1879.0,-0.3,0.27,0.4,0.2,0.03,0.66,85.19,25.19,96.62,3.81,-8.56,-0.6,1,550
0,961508.0,23.0,31.0,0.0,2.0,1909.0,-1.32,0.35,0.33,0.05,-0.09,-0.07,81.0,21.37,95.31,2.25,-8.73,-0.51,1,550
0,961735.0,42.0,27.0,0.0,0.0,1789.0,0.38,0.25,0.16,-0.14,-0.03,-0.86,85.25,25.87,96.44,4.74,-8.47,-0.84,1,550
0,961951.0,35.0,35.0,1.0,2.0,1646.0,-0.01,0.39,0.24,-0.06,-0.02,-0.99,97.5,37.13,99.19,6.54,-7.36,-0.91,1,550
0,962173.0,9.0,27.0,4.0,0.0,1503.0,0.01,0.42,0.19,-0.12,-0.03,-0.9,109.25,48.06,102.25,7.3,-5.97,-1.2,1,550
0,962390.0,23.0,2202.0,0.0,2.0,1560.0,-0.21,0.19,0.09,0.03,-0.03,-0.33,117.06,55.31,105.25,7.84,-5.19,-1.37,1,550
0,962610.0,18.0,2070.0,1.0,0.0,1541.0,0.0,0.19,-0.21,-0.17,-0.07,-0.32,121.31,58.38,109.19,7.8,-4.76,-1.93,1,550
0,962830.0,27.0,3.0,0.0,4.0,1259.0,0.17,0.44,0.17,-0.07,0.11,-0.74,130.69,66.0,114.69,9.13,-3.17,-1.48,1,550
0,963045.0,21.0,2.0,0.0,2.0,1463.0,1.07,0.08,-0.22,-0.06,-0.03,0.21,136.25,70.0,116.0,10.28,-2.94,-1.69,1,550
0,963262.0,31.0,14.0,1.0,4.0,1620.0,-0.22,0.46,-0.04,0.25,-0.01,1.48,122.19,58.0,106.5,8.24,-4.49,-1.4,1,550
0,963479.0,35.0,28.0,0.0,1.0,1852.0,-0.9,0.15,0.24,0.21,0.03,1.46,101.25,40.31,99.44,5.44,-7.22,-0.98,1,550
0,963695.0,40.0,20.0,1.0,0.0,1813.0,0.49,0.22,0.36,0.16,-0.02,0.74,87.31,27.75,96.06,5.01,-8.43,-0.54,1,550
0,963917.0,56.0,19.0,2.0,0.0,1903.0,-1.61,-0.15,0.57,0.1,0.12,0.23,82.19,22.69,94.62,2.15,-9.18,-0.15,1,550
0,964135.0,39.0,29.0,3.0,0.0,1831.0,-1.46,-0.03,0.52,0.05,-0.05,-0.82,86.0,26.5,93.81,3.9,-8.68,0.04,1,550
0,964351.0,25.0,19.0,0.0,0.0,1702.0,1.96,0.33,0.4,-0.19,-0.02,-0.91,97.75,37.81,95.06,7.98,-7.37,-0.28,1,550
0,964570.0,33.0,44.0,5.0,0.0,1571.0,1.23,0.2,-0.14,-0.25,-0.11,-0.72,109.37,47.75,98.75,8.5,-6.3,-1.14,1,550
0,964788.0,28.0,8.0,0.0,0.0,1455.0,0.19,0.19,-0.05,0.06,-0.06,-0.39,116.0,54.19,101.0,7.54,-5.35,-1.23,1,550
0,965005.0,33.0,13.0,0.0,0.0,1322.0,0.81,0.42,0.45,-0.04,-0.01,-0.87,124.25,62.63,104.5,7.95,-3.85,-0.68,1,550
0,965224.0,34.0,19.0,2.0,0.0,1189.0,0.1,0.07,-0.06,-0.1,-0.1,-0.7,136.0,72.31,115.44,9.44,-2.61,-1.35,1,550
0,965441.0,24.0,0.0,0.0,1.0,1401.0,0.32,0.26,-0.06,0.08,-0.01,0.64,135.94,72.0,114.31,9.63,-2.54,-1.31,1,550
0,965656.0,31.0,1418.0,0.0,3.0,1436.0,-0.49,0.42,0.14,0.22,0.06,1.49,120.0,58.94,103.87,7.83,-4.6,-1.04,1,550
0,965878.0,22.0,3532.0,0.0,2.0,1828.0,0.01,0.5,0.59,0.04,0.02,1.15,101.69,42.69,98.5,6.18,-6.6,-0.47,1,550
0,966094.0,17.0,1775.0,0.0,1.0,1720.0,0.32,0.23,-0.03,-0.21,0.01,0.36,93.56,33.19,99.06,5.73,-7.84,-1.59,1,550
0,966316.0,39.0,10.0,0.0,9.0,1779.0,-0.85,0.14,1.44,0.14,0.12,-0.29,93.0,32.44,98.56,4.29,-8.17,-0.3,1,550
0,966536.0,22.0,21.0,6.0,0.0,1945.0,0.34,0.22,-0.12,-0.05,0.16,-0.6,102.31,39.94,100.19,6.64,-7.16,-1.46,1,550
0,966751.0,28.0,9.0,7.0,412.0,1915.0,0.47,0.2,0.12,0.01,0.04,-0.16,107.12,44.19,99.62,7.32,-6.7,-1.05,1,550
0,966967.0,37.0,18.0,2.0,0.0,1641.0,-0.49,0.26,0.41,0.09,-0.01,-0.29,109.12,46.56,99.19,6.64,-6.45,-0.75,1,550
0,967190.0,29.0,17.0,0.0,0.0,1523.0,-1.94,0.0,0.3,0.01,0.04,-0.66,115.0,52.75,100.37,5.85,-5.85,-0.47,1,550
0,967409.0,34.0,16.0,0.0,1.0,1373.0,-0.59,-0.08,0.03,0.01,-0.01,-1.07,126.5,63.94,104.06,8.53,-3.72,-0.8,1,550
0,967628.0,28.0,13.0,0.0,11.0,1227.0,0.69,0.43,0.18,-0.01,-0.04,-0.85,137.81,75.0,113.0,10.16,-1.89,-0.8,1,550
0,967848.0,20.0,7.0,0.0,5.0,1176.0,1.6,0.2,-0.35,-0.05,-0.08,0.07,143.94,79.19,130.69,9.43,-1.48,-1.39,1,550
0,968065.0,21.0,3.0,0.0,1.0,1413.0,0.46,0.18,0.31,0.01,-0.04,0.78,137.94,74.12,117.56,9.9,-2.18,-0.92,1,550
0,968287.0,41.0,11.0,1.0,0.0,1433.0,0.22,0.35,0.47,-0.03,-0.07,1.3,124.56,61.44,107.87,8.84,-4.1,-0.96,1,550
0,968502.0,20.0,0.0,2.0,1.0,1739.0,-0.46,0.12,0.31,0.0,-0.01,1.08,109.87,47.44,103.87,6.69,-6.37,-1.27,1,550
0,968723.0,25.0,6.0,1.0,0.0,1875.0,-0.6,0.1,0.35,0.1,0.04,0.75,98.19,36.75,100.87,5.21,-7.64,-1.12,1,550
0,968942.0,29.0,17.0,3.0,0.0,1994.0,-0.34,0.13,0.6,0.07,0.07,0.51,90.0,29.19,98.37,4.37,-8.22,-0.81,1,550
0,969158.0,25.0,23.0,3.0,9.0,2065.0,-0.56,0.01,0.0,0.06,-0.01,-0.09,87.19,26.37,97.37,3.79,-8.69,-1.12,1,550
0,969375.0,30.0,12.0,1.0,0.0,1759.0,-0.9,0.34,0.62,0.07,-0.02,-0.68,92.5,32.38,97.44,4.35,-7.86,-0.44,1,550
0,969592.0,75.0,21.0,1.0,0.0,1623.0,2.41,0.98,0.21,0.1,-0.03,-1.19,103.31,43.5,97.56,8.21,-6.27,-1.25,1,550
0,969808.0,31.0,19.0,1.0,0.0,1494.0,1.62,0.71,0.32,0.11,0.09,-1.04,115.56,56.31,96.56,7.84,-5.08,-0.68,1,550
0,970026.0,35.0,14.0,1.0,0.0,1341.0,1.36,0.58,0.17,-0.0,0.02,-0.99,126.56,67.62,95.69,10.46,-3.04,-0.19,1,550
0,970241.0,27.0,4.0,0.0,16.0,1417.0,-0.55,0.0,0.11,-0.12,-0.08,-0.66,137.37,77.75,102.5,8.25,-2.02,-0.05,1,550
0,970459.0,19.0,10.0,1.0,0.0,1349.0,-0.26,-0.02,-0.02,-0.06,0.07,0.35,142.19,80.62,112.62,9.41,-1.49,-0.63,1,550
0,970681.0,27.0,5.0,0.0,5.0,1453.0,1.17,0.33,0.09,-0.02,-0.01,0.79,136.5,74.81,102.94,10.64,-2.16,-0.48,1,550
0,970899.0,25.0,19.0,0.0,5.0,1619.0,-0.66,0.31,0.11,-0.03,-0.03,1.17,123.81,61.88,98.62,7.98,-4.25,-0.58,1,550
0,971121.0,25.0,0.0,1.0,2.0,1784.0,-0.85,0.39,0.36,-0.04,0.01,1.25,108.44,46.94,97.06,6.12,-6.55,-0.48,1,550
0,971338.0,37.0,25.0,0.0,4.0,1771.0,-0.11,0.09,0.31,-0.03,-0.01,0.81,97.44,35.5,96.87,5.51,-7.87,-0.64,1,550
0,971554.0,27.0,13.0,0.0,3.0,1892.0,-0.59,-0.2,0.21,0.02,0.1,0.33,90.56,28.25,96.31,3.27,-8.65,-1.37,1,550
0,971773.0,37.0,17.0,0.0,0.0,1861.0,1.43,0.31,0.16,0.08,-0.0,-0.45,91.81,29.56,95.31,4.02,-8.48,-0.68,1,550
0,971992.0,27.0,11.0,0.0,0.0,1733.0,-0.53,0.16,0.37,0.04,-0.01,-0.79,98.62,36.94,95.06,5.36,-7.64,-0.32,1,550
0,972208.0,36.0,11.0,0.0,2.0,1590.0,1.4,0.66,0.2,0.1,-0.04,-1.03,108.69,47.56,94.81,8.64,-5.92,-0.35,1,550
0,972430.0,29.0,17.0,2.0,0.0,1449.0,-1.8,0.12,0.37,0.07,0.15,-0.79,119.06,58.56,93.81,6.56,-4.97,0.03,1,550
0,972650.0,37.0,21.0,0.0,0.0,1320.0,-1.37,0.0,0.41,-0.01,0.04,-0.73,130.5,70.06,95.81,7.84,-3.32,0.07,1,550
0,972869.0,27.0,13.0,0.0,0.0,1179.0,0.58,0.25,-0.06,-0.1,-0.18,-0.76,140.12,79.12,107.31,10.22,-1.43,-0.63,1,550
0,973088.0,22.0,0.0,0.0,4.0,1363.0,0.15,0.02,-0.06,0.01,-0.07,0.52,141.12,79.25,113.62,9.78,-1.7,-0.8,1,550
0,973306.0,31.0,28.0,0.0,0.0,1507.0,-0.76,0.18,0.28,0.1,-0.05,1.25,128.81,68.62,102.12,10.33,-3.12,-0.37,1,550
0,973521.0,27.0,1275.0,1.0,0.0,1685.0,0.45,0.27,0.14,-0.02,-0.05,1.04,112.37,53.06,98.5,8.3,-5.54,-0.72,1,550
0,973739.0,24.0,448.0,2.0,0.0,1685.0,0.2,0.3,0.27,0.02,-0.01,1.01,100.19,41.19,96.94,6.59,-7.08,-0.62,1,550
0,973952.0,28.0,31.0,0.0,1.0,1817.0,-1.05,0.38,0.22,-0.02,-0.01,0.65,89.25,30.25,95.81,3.89,-8.03,-0.63,1,550
0,974171.0,23.0,3.0,0.0,0.0,2042.0,0.07,0.08,0.06,0.08,0.02,-0.13,85.94,26.75,95.06,4.51,-8.62,-0.69,1,550
0,974391.0,29.0,12.0,2.0,0.0,1799.0,1.11,0.46,-0.09,0.02,-0.04,-0.82,90.87,32.25,94.19,6.41,-7.76,-0.71,1,550
0,974605.0,35.0,13.0,6.0,7.0,1679.0,-1.07,0.33,0.43,0.06,0.05,-0.74,99.81,41.38,94.06,5.12,-7.16,0.17,1,550
0,974825.0,31.0,17.0,4.0,0.0,1545.0,-2.18,-0.2,0.25,0.07,0.09,-0.74,110.37,51.94,93.62,5.6,-6.22,0.31,1,550
0,975043.0,31.0,12.0,0.0,5.0,1407.0,1.78,0.61,0.28,0.05,-0.02,-1.02,120.31,62.38,93.25,10.47,-3.91,0.02,1,550
0,975260.0,37.0,3.0,2.0,0.0,1277.0,1.66,0.54,0.28,-0.12,-0.08,-0.76,131.31,72.75,94.31,11.05,-2.28,0.05,1,550
0,975478.0,31.0,6.0,0.0,1.0,1355.0,-0.09,-0.01,0.0,-0.05,-0.32,-0.23,138.06,78.37,104.19,11.25,-1.73,-0.39,1,550
0,975699.0,37.0,19.0,0.0,1.0,1433.0,-0.2,0.0,0.14,-0.02,0.0,0.63,134.06,74.0,101.69,9.52,-2.68,-0.38,1,550
0,975917.0,53.0,863.0,1.0,6.0,1431.0,-0.12,0.07,0.18,-0.02,-0.02,1.19,122.94,63.0,97.81,9.69,-4.13,-0.31,1,550
0,976137.0,59.0,2299.0,1.0,0.0,1579.0,-0.24,0.42,0.15,-0.14,0.0,0.99,109.94,49.5,96.94,7.21,-5.89,-0.61,1,550
0,976356.0,37.0,25.0,1.0,0.0,1701.0,-0.95,0.26,0.18,-0.09,0.01,0.74,100.75,39.31,97.0,5.25,-7.25,-0.74,1,550
0,976577.0,59.0,23.0,1.0,0.0,1757.0,-1.89,-0.13,0.19,-0.09,0.06,0.3,94.56,32.31,97.25,4.62,-8.06,-0.57,1,550
0,976797.0,53.0,24.0,0.0,11.0,1837.0,-0.63,0.08,0.15,0.08,-0.02,-0.27,94.81,32.25,96.81,4.6,-8.15,-0.82,1,550
0,977015.0,35.0,17.0,3.0,0.0,1750.0,-0.88,-0.21,0.21,0.1,-0.02,-0.69,100.62,38.88,96.75,5.27,-7.79,-0.68,1,550
0,977231.0,31.0,17.0,7.0,0.0,1623.0,-0.34,0.16,-0.18,0.08,0.0,-0.89,107.94,46.88,96.37,6.87,-6.43,-0.91,1,550
0,977448.0,31.0,13.0,0.0,0.0,1492.0,1.35,0.59,0.17,0.06,0.01,-1.01,117.81,57.44,96.0,9.62,-4.64,-0.37,1,550
0,977664.0,39.0,17.0,10.0,0.0,1350.0,1.15,0.75,0.24,0.0,-0.03,-1.12,128.69,68.69,96.44,10.32,-2.69,-0.15,1,550
0,977885.0,22.0,13.0,0.0,7.0,1429.0,0.07,0.17,0.53,-0.07,-0.03,-0.75,140.5,79.87,103.19,9.74,-1.42,0.13,1,550
0,978103.0,33.0,4.0,1.0,0.0,1317.0,-0.49,-0.16,-0.04,-0.02,-0.03,0.3,145.69,83.0,125.5,9.84,-1.01,-0.57,1,550
0,978319.0,27.0,9.0,0.0,22.0,1385.0,0.72,0.23,0.16,-0.02,-0.08,0.74,140.12,78.0,112.56,10.31,-1.64,-0.61,1,550
0,978540.0,31.0,21.0,0.0,0.0,1549.0,0.57,0.39,0.28,-0.08,-0.11,1.18,127.62,65.62,104.44,9.51,-3.51,-0.71,1,550
0,978756.0,29.0,25.0,2.0,1.0,1562.0,-0.48,0.15,0.05,-0.06,0.0,1.11,114.5,52.13,101.5,7.19,-5.82,-1.15,1,550
0,978972.0,12.0,47.0,0.0,5.0,1737.0,-0.28,0.23,0.14,0.05,0.04,1.03,101.62,39.69,98.75,5.51,-7.38,-0.88,1,550
0,979193.0,25.0,22.0,0.0,0.0,1819.0,-0.36,0.33,0.35,0.05,0.02,0.88,89.44,28.0,96.87,4.24,-8.26,-0.68,1,550
0,979412.0,29.0,20.0,0.0,1.0,1902.0,-0.37,-0.09,0.22,0.01,-0.05,-0.16,84.25,23.06,96.31,3.48,-9.05,-0.77,1,550
0,979637.0,60.0,190.0,1.0,0.0,1784.0,0.07,0.28,0.32,0.03,0.0,-0.66,88.31,28.06,96.5,4.75,-8.28,-0.65,1,550
0,979852.0,26.0,0.0,0.0,1.0,1652.0,-0.75,0.62,0.23,0.14,0.21,-1.23,101.0,40.19,95.75,5.58,-6.81,-0.51,1,550
0,980067.0,29.0,3.0,0.0,1.0,1483.0,-0.33,0.29,0.21,0.12,0.34,-1.27,116.94,55.44,91.37,7.81,-5.15,0.11,1,550
0,980284.0,35.0,16.0,5.0,0.0,1355.0,-1.17,0.25,0.44,-0.03,0.35,-0.93,131.37,68.56,81.5,7.98,-3.2,1.0,1,550
0,980500.0,40.0,6.0,0.0,0.0,1374.0,0.24,0.41,0.17,-0.01,0.19,-1.0,144.31,78.62,58.56,9.86,-1.23,1.17,1,550
0,980716.0,27.0,7.0,0.0,9.0,1230.0,-0.55,-0.08,-0.49,-0.04,0.23,0.32,151.31,81.44,22.69,9.14,-0.68,0.87,1,550
0,980940.0,30.0,9.0,3.0,0.0,1453.0,-0.07,-0.1,0.35,0.03,0.0,0.9,144.62,77.0,47.81,9.48,-1.73,1.82,1,550
0,981160.0,36.0,21.0,0.0,0.0,1640.0,-1.35,0.24,0.12,-0.04,-0.09,1.35,129.44,63.88,71.69,7.44,-3.85,1.47,1,550
0,981384.0,41.0,35.0,0.0,3.0,1660.0,-0.11,0.15,0.42,-0.01,-0.01,1.17,114.0,49.56,79.25,6.55,-6.03,1.58,1,550
0,981610.0,41.0,2.0,0.0,1.0,1797.0,-0.61,0.09,0.62,-0.26,0.03,0.92,103.37,37.88,83.44,5.33,-7.64,1.48,1,550
0,981830.0,27.0,19.0,0.0,0.0,1913.0,-1.34,0.08,0.27,-0.17,0.11,0.38,96.75,29.06,86.62,3.37,-8.49,0.77,1,550
0,982051.0,44.0,9.0,0.0,0.0,1863.0,-0.78,0.22,0.12,0.09,-0.12,-0.57,97.87,30.56,87.37,4.24,-8.18,0.51,1,550
0,982271.0,31.0,5.0,0.0,1.0,1721.0,-0.35,0.52,0.26,0.06,-0.01,-1.05,106.62,40.44,86.0,6.08,-6.85,0.78,1,550
0,982492.0,24.0,19.0,1.0,0.0,1561.0,1.97,0.75,0.01,0.2,0.2,-1.25,120.69,54.81,82.56,9.99,-4.84,0.74,1,550
0,982711.0,30.0,19.0,2.0,0.0,1415.0,-1.52,0.25,0.5,0.29,0.19,-0.99,133.31,68.0,69.19,7.6,-3.08,1.82,1,550
0,982930.0,29.0,13.0,0.0,0.0,1270.0,-1.21,0.0,0.51,0.0,-0.07,-0.78,143.12,77.25,46.69,8.36,-1.5,1.98,1,550
0,983148.0,31.0,12.0,2.0,0.0,1141.0,-0.35,-0.01,0.38,-0.05,0.02,-0.24,149.19,81.31,27.62,9.33,-0.69,1.69,1,550
0,983362.0,30.0,19.0,0.0,5.0,1379.0,0.12,0.19,0.27,-0.03,-0.02,0.27,148.0,81.37,36.69,9.82,-0.7,1.45,1,550
0,983578.0,23.0,0.0,0.0,27.0,1519.0,-0.35,0.3,0.15,-0.12,-0.05,1.25,138.44,72.94,68.31,8.98,-2.48,1.2,1,550
0,983797.0,53.0,8.0,1.0,2.0,1509.0,-1.74,0.33,-0.06,-0.05,-0.13,1.2,123.37,58.13,80.19,6.58,-4.75,0.81,1,550
0,984012.0,27.0,4.0,0.0,1.0,1691.0,-0.41,-0.04,0.56,-0.01,0.01,1.0,110.31,45.5,83.81,6.51,-6.94,1.29,1,550
0,984230.0,39.0,29.0,1.0,0.0,1817.0,-1.23,0.32,0.21,-0.07,-0.01,0.59,99.69,34.38,85.31,4.26,-7.77,0.87,1,550
0,984449.0,36.0,19.0,1.0,0.0,1872.0,-1.07,-0.45,0.32,0.24,0.08,0.21,96.81,31.06,84.06,3.99,-8.8,1.18,1,550
0,984666.0,25.0,0.0,5.0,0.0,1799.0,-1.0,0.76,0.48,0.3,-0.2,-0.79,97.69,34.0,80.25,4.66,-7.29,1.66,1,550
0,984888.0,29.0,19.0,2.0,0.0,1656.0,-1.06,0.44,0.42,0.24,0.05,-1.03,109.5,47.5,74.56,5.44,-6.1,2.76,1,550
0,985107.0,28.0,19.0,0.0,0.0,1509.0,-1.44,0.33,0.55,0.15,0.09,-0.81,120.62,59.06,66.75,6.97,-4.29,2.54,1,550
0,985323.0,11.0,5.0,0.0,18.0,1627.0,-0.33,0.04,0.13,0.03,-0.07,-0.92,130.0,68.12,55.19,8.79,-2.87,2.21,1,550
0,985548.0,29.0,13.0,0.0,5.0,1229.0,1.17,0.51,0.19,-0.16,-0.21,-0.77,140.5,76.12,36.06,10.69,-0.87,2.09,1,550
0,985764.0,27.0,11.0,4.0,0.0,1323.0,0.96,-0.2,-0.28,0.04,0.05,0.07,146.69,79.75,18.5,10.61,-0.76,1.36,1,550
0,985981.0,30.0,11.0,0.0,8.0,1391.0,0.89,0.24,0.4,-0.08,-0.04,0.7,142.94,78.12,32.75,10.35,-1.0,2.04,1,550
0,986200.0,23.0,29.0,0.0,5.0,1599.0,-0.87,0.7,0.04,-0.12,-0.12,1.72,128.06,65.87,69.75,8.07,-3.05,1.42,1,550
0,986416.0,29.0,1317.0,0.0,1.0,1621.0,-1.1,0.77,0.34,-0.1,0.01,1.35,110.0,48.06,80.37,6.19,-5.68,1.44,1,550
0,986636.0,41.0,467.0,0.0,0.0,1769.0,-0.48,0.2,0.2,0.0,0.05,0.7,100.19,37.69,82.25,5.51,-7.47,1.24,1,550
0,986851.0,37.0,6.0,1.0,0.0,1865.0,-0.01,0.32,0.4,0.03,0.05,0.52,93.19,30.31,81.94,4.93,-8.05,1.58,1,550
0,987069.0,35.0,12.0,0.0,14.0,1907.0,-2.58,0.1,0.62,0.12,-0.02,-0.16,91.19,28.0,80.94,2.02,-8.44,1.98,1,550
0,987288.0,19.0,14.0,0.0,0.0,1771.0,-1.82,0.57,0.37,0.01,-0.02,-0.84,98.37,36.5,80.06,4.01,-7.18,1.72,1,550
0,987505.0,25.0,22.0,1.0,0.0,1631.0,1.87,0.8,0.63,0.01,0.06,-1.02,110.94,48.5,78.12,9.29,-5.46,1.96,1,550
0,987719.0,25.0,8.0,4.0,2.0,1664.0,-1.63,0.26,0.94,0.02,0.04,-1.12,123.81,60.63,73.44,6.91,-4.34,2.3,1,550
0,987940.0,24.0,5.0,2.0,0.0,1529.0,-1.33,0.21,0.26,-0.07,-0.02,-1.05,138.31,73.56,61.06,8.07,-2.2,1.6,1,550
0,988162.0,23.0,7.0,9.0,1.0,1397.0,3.21,-0.12,-2.26,-0.33,-0.2,-0.41,149.5,81.31,29.25,12.91,-0.84,-0.97,1,550
0,988378.0,24.0,9.0,0.0,0.0,1350.0,-1.07,-0.03,0.58,0.06,0.03,0.15,150.25,82.5,29.94,8.65,-0.67,1.68,1,550
0,988598.0,25.0,9.0,0.0,0.0,1432.0,0.52,0.17,0.11,-0.07,-0.05,0.96,144.31,78.37,62.75,10.13,-1.57,1.01,1,550
0,988812.0,36.0,19.0,1.0,0.0,1434.0,-0.37,0.22,0.36,-0.02,-0.02,1.0,133.25,67.5,77.75,8.69,-3.43,1.15,1,550
0,989031.0,34.0,13.0,0.0,0.0,1581.0,-0.4,0.1,0.02,-0.07,-0.03,0.92,122.5,56.44,82.06,7.77,-5.25,0.76,1,550
0,989251.0,21.0,0.0,0.0,1.0,1860.0,-0.17,0.18,0.28,-0.06,0.03,0.97,111.94,45.5,84.62,6.81,-6.66,0.92,1,550
0,989465.0,25.0,13.0,0.0,0.0,1997.0,-0.1,0.02,0.22,0.0,0.02,0.76,102.0,35.13,85.62,5.54,-7.97,0.82,1,550
0,989679.0,33.0,14.0,1.0,0.0,1869.0,-1.03,0.32,0.96,0.12,-0.03,-0.25,97.81,31.5,85.0,4.09,-8.0,1.68,1,550
0,989896.0,39.0,10.0,3.0,0.0,1741.0,0.14,0.3,0.49,0.13,0.03,-0.79,104.81,39.69,83.81,6.47,-7.14,1.31,1,550
0,990114.0,30.0,16.0,0.0,1.0,1596.0,-0.44,0.25,0.16,0.13,-0.02,-1.02,115.37,51.13,80.62,7.19,-5.81,1.15,1,550
0,990333.0,31.0,21.0,0.0,0.0,1459.0,1.38,0.41,0.13,0.36,0.11,-1.25,127.25,64.12,69.87,8.24,-3.62,2.04,1,550
0,990551.0,30.0,17.0,0.0,0.0,1299.0,1.19,0.39,0.1,0.01,-0.02,-0.98,139.19,74.94,46.13,10.66,-1.44,1.86,1,550
0,990769.0,37.0,21.0,17.0,0.0,1181.0,-0.67,-0.62,1.64,0.13,-0.09,-0.1,145.81,79.12,23.12,8.96,-1.33,3.34,1,550
0,990987.0,22.0,9.0,0.0,18.0,1356.0,0.99,0.0,0.0,-0.02,-0.13,0.11,146.31,80.0,22.19,10.65,-0.65,1.56,1,550
0,991207.0,26.0,11.0,5.0,29.0,1428.0,0.44,0.11,0.2,-0.09,-0.07,0.9,142.19,77.94,43.38,9.88,-1.44,1.77,1,550
0,991427.0,31.0,12.0,0.0,6.0,1608.0,-0.59,0.22,0.09,-0.09,0.0,1.27,128.5,65.62,70.56,8.39,-3.49,1.63,1,550
0,991648.0,31.0,35.0,0.0,0.0,1754.0,-0.41,0.5,0.32,-0.03,0.02,1.25,115.06,52.06,77.87,7.25,-5.48,1.58,1,550
0,991866.0,37.0,21.0,1.0,3.0,1787.0,-1.36,0.43,0.4,-0.05,0.0,1.06,100.81,37.94,81.25,4.66,-7.2,1.57,1,550
0,992083.0,31.0,17.0,3.0,2.0,2067.0,-2.0,0.25,0.04,-0.07,0.03,0.35,92.69,29.06,82.62,2.76,-8.24,1.13,1,550
0,992302.0,39.0,21.0,0.0,4.0,1839.0,-0.28,0.37,0.56,0.03,-0.2,-0.57,93.94,30.5,82.81,4.74,-7.97,1.6,1,550
0,992521.0,21.0,0.0,2.0,3.0,1852.0,-0.48,0.13,0.17,0.02,-0.01,-0.62,101.0,38.56,82.31,5.67,-7.42,1.2,1,550
0,992738.0,31.0,1872.0,0.0,0.0,1789.0,-0.59,0.39,0.15,0.05,0.01,-0.62,107.69,45.38,81.25,6.42,-6.36,1.2,1,550
0,992956.0,38.0,1271.0,0.0,2.0,1426.0,-0.71,0.65,0.2,0.12,-0.0,-1.21,117.94,56.19,77.25,7.43,-4.66,1.4,1,550
0,993172.0,37.0,27.0,1.0,0.0,1299.0,0.15,0.46,0.34,0.07,0.03,-1.19,132.0,70.25,66.12,9.41,-2.45,1.69,1,550
0,993388.0,26.0,36.0,2.0,2.0,1183.0,0.07,0.35,0.29,-0.0,-0.02,-0.95,143.94,79.81,33.81,9.74,-0.51,1.73,1,550
0,993613.0,21.0,1.0,0.0,7.0,1368.0,0.49,0.09,0.57,0.03,0.07,-0.02,146.25,80.06,24.06,10.15,-0.59,2.11,1,550
0,993831.0,33.0,19.0,0.0,0.0,1437.0,0.68,0.19,0.25,-0.11,-0.09,0.74,142.19,77.94,46.19,10.27,-1.35,1.65,1,550
0,994049.0,21.0,0.0,0.0,22.0,1577.0,-0.3,0.19,-0.08,-0.1,0.02,1.14,131.12,67.75,70.37,8.81,-3.31,1.36,1,550
0,994270.0,22.0,5.0,0.0,7.0,1770.0,-0.93,-0.12,0.08,-0.23,-0.09,1.51,115.94,51.69,79.25,6.76,-6.09,1.21,1,550
0,994488.0,29.0,21.0,0.0,0.0,1933.0,-1.41,0.74,-0.01,-0.22,-0.2,0.88,102.25,37.81,84.94,4.19,-7.52,0.98,1,550
0,994709.0,25.0,13.0,17.0,0.0,2027.0,-1.09,-0.22,1.45,-0.05,-0.23,0.05,96.56,33.31,88.81,4.29,-8.41,1.62,1,550
0,994926.0,29.0,19.0,0.0,12.0,1773.0,-1.74,0.75,0.87,-0.02,-0.23,-0.71,97.44,36.38,91.37,4.07,-7.13,0.68,1,550
0,995143.0,23.0,3.0,0.0,13.0,1833.0,2.56,0.77,0.11,0.04,-0.01,-1.1,110.0,49.81,91.31,10.12,-5.47,-0.03,1,550
0,995362.0,24.0,9.0,0.0,7.0,1669.0,0.45,0.27,0.11,-0.06,0.04,-1.15,124.56,63.56,90.69,10.3,-3.51,-0.01,1,550
0,995578.0,23.0,7.0,3.0,0.0,1566.0,-1.66,-0.26,0.11,-0.06,0.02,-0.76,135.69,73.81,89.37,10.92,-1.94,-0.23,1,550
0,995799.0,23.0,0.0,0.0,2.0,1433.0,-0.63,0.16,0.54,-0.02,0.04,-0.81,146.37,84.12,5.75,9.98,-0.85,0.99,1,550
0,996020.0,25.0,7.0,4.0,0.0,1324.0,-0.27,-0.12,0.29,-0.12,-0.19,0.07,149.19,86.37,176.44,9.51,-0.73,0.16,1,550
0,996238.0,23.0,7.0,0.0,0.0,1381.0,0.42,0.26,0.07,-0.03,-0.32,1.02,142.94,78.75,109.19,10.04,-1.52,-0.55,1,550
0,996459.0,25.0,7.0,2.0,0.0,1551.0,0.09,0.39,0.39,0.04,-0.39,1.24,126.94,64.06,108.31,8.92,-3.67,-0.95,1,550
0,996677.0,53.0,37.0,0.0,0.0,1593.0,-0.94,0.24,0.22,0.11,-0.39,1.42,107.69,47.75,107.06,6.22,-6.14,-1.72,1,550
0,996896.0,35.0,710.0,0.0,0.0,1719.0,-0.72,0.11,0.52,0.12,-0.15,0.92,89.12,32.88,104.25,4.52,-7.91,-1.49,1,550
0,997113.0,31.0,11.0,0.0,1.0,1834.0,-0.56,0.3,0.48,-0.0,-0.02,0.55,78.0,23.56,102.37,2.4,-8.77,-1.43,1,550
0,997329.0,35.0,27.0,2.0,5.0,1860.0,-0.44,0.18,0.52,-0.05,0.08,-0.29,77.37,22.44,102.75,3.3,-8.65,-1.47,1,550
0,997549.0,35.0,21.0,0.0,0.0,1778.0,2.08,0.51,0.04,-0.06,0.07,-0.72,84.75,29.12,103.81,6.85,-7.8,-2.0,1,550
0,997766.0,25.0,3.0,0.0,5.0,1612.0,-1.81,0.08,0.64,-0.08,0.16,-0.91,95.44,38.25,105.25,4.33,-7.27,-1.37,1,550
