class,time,fsr1,fsr2,fsr3,fsr4,angle,accx,accy,accz,gyro1,gyro2,gyro3,orient1,orient2,orient3,acc2x,acc2y,acc2z,participant,serialnumber
0,630407.0,1173.0,7.0,3.0,6.0,1675.0,0.33,0.29,0.53,-0.22,0.02,1.35,1.19,44.75,89.19,7.24,-6.66,0.62,1,486
0,630628.0,1843.0,6.0,7.0,3.0,1849.0,0.45,0.35,0.52,-0.2,0.08,1.11,348.37,29.69,91.62,5.31,-8.15,0.27,1,486
0,630841.0,1959.0,0.0,7.0,9.0,2200.0,-1.0,-0.18,0.51,-0.04,-0.01,0.05,341.25,21.44,92.69,2.16,-9.35,-0.1,1,486
0,631059.0,978.0,477.0,5.0,0.0,2101.0,0.53,0.25,0.58,0.13,-0.11,-1.2,348.37,29.87,92.37,5.42,-8.23,0.23,1,486
0,631279.0,22.0,1374.0,1.0,0.0,1891.0,0.86,0.47,0.75,0.16,-0.01,-1.31,2.94,46.25,91.81,7.95,-6.3,0.54,1,486
0,631493.0,31.0,1742.0,0.0,11.0,1349.0,0.61,0.62,0.63,0.14,0.05,-1.51,17.94,62.31,90.31,9.36,-3.79,0.61,1,486
0,631711.0,42.0,21.0,3.0,0.0,1181.0,1.52,0.72,0.47,0.02,0.04,-1.08,33.31,78.56,83.62,11.15,-1.03,0.79,1,486
0,631931.0,27.0,7.0,1.0,8.0,1828.0,0.77,0.26,0.42,-0.09,-0.11,0.64,33.25,77.94,74.69,10.36,-1.7,0.96,1,486
0,632147.0,43.0,17.0,7.0,0.0,1901.0,0.32,0.32,0.54,-0.1,-0.08,1.07,22.81,67.25,84.19,9.33,-3.53,0.91,1,486
0,632363.0,31.0,5.0,3.0,0.0,1971.0,0.54,0.39,0.55,-0.16,-0.01,1.18,9.63,53.06,88.06,8.31,-5.57,0.73,1,486
0,632583.0,540.0,13.0,4.0,0.0,2127.0,0.06,0.32,0.6,-0.19,0.09,1.2,357.25,38.94,90.37,6.23,-7.29,0.55,1,486
0,632803.0,1577.0,19.0,6.0,0.0,1847.0,-0.96,0.06,0.17,-0.14,0.0,0.38,347.56,28.19,92.56,3.49,-8.47,0.23,1,486
0,633022.0,1113.0,751.0,3.0,8.0,2321.0,-0.03,0.24,0.54,0.07,-0.05,-0.75,350.75,31.69,93.0,5.11,-8.08,0.1,1,486
0,633234.0,271.0,2199.0,3.0,3.0,1612.0,0.03,0.37,0.54,0.08,-0.03,-1.05,0.62,42.81,93.0,6.7,-6.8,0.16,1,486
0,633448.0,31.0,2542.0,0.0,5.0,1897.0,0.24,0.44,0.55,0.03,-0.01,-1.26,13.94,56.69,93.62,8.5,-4.83,0.21,1,486
0,633668.0,41.0,2092.0,4.0,0.0,1259.0,1.28,0.66,0.33,0.13,0.16,-1.02,28.81,72.06,94.69,10.64,-2.24,0.1,1,486
0,633885.0,25.0,9.0,0.0,0.0,1901.0,0.83,0.05,0.49,0.17,0.25,-0.22,33.69,77.87,71.19,10.49,-1.9,1.19,1,486
0,634104.0,23.0,5.0,0.0,9.0,1995.0,0.63,0.02,0.47,-0.14,-0.1,0.84,29.44,73.44,72.25,9.94,-2.62,1.31,1,486
0,634323.0,24.0,10.0,0.0,5.0,2138.0,-0.34,0.11,0.43,-0.19,-0.09,1.22,17.56,60.5,82.94,8.19,-4.67,1.02,1,486
0,634537.0,670.0,19.0,6.0,0.0,2293.0,0.15,0.21,0.53,-0.23,-0.04,1.14,4.94,46.38,87.75,7.09,-6.58,0.7,1,486
0,634754.0,1716.0,25.0,12.0,0.0,1811.0,-0.48,0.0,0.28,-0.21,-0.28,0.69,353.31,33.63,91.31,5.54,-8.47,0.64,1,486
0,634976.0,1899.0,373.0,9.0,0.0,2379.0,-0.49,0.04,0.23,0.12,-0.06,-0.62,351.5,32.19,92.0,4.73,-8.24,-0.05,1,486
0,635192.0,757.0,1647.0,5.0,0.0,2164.0,-0.23,0.42,0.41,0.2,-0.03,-1.05,0.69,43.44,90.62,6.51,-6.68,0.33,1,486
0,635412.0,39.0,2619.0,3.0,0.0,1896.0,0.34,0.4,0.39,0.16,0.01,-1.19,12.88,57.38,88.81,8.61,-4.87,0.49,1,486
0,635629.0,40.0,1798.0,2.0,0.0,1271.0,0.73,0.52,0.32,0.23,0.18,-0.86,24.56,70.5,83.81,10.0,-2.64,0.69,1,486
0,635843.0,19.0,2.0,0.0,9.0,1875.0,0.14,0.15,0.38,0.21,0.23,-0.24,28.06,74.44,61.31,9.59,-2.15,1.64,1,486
0,636060.0,18.0,11.0,0.0,5.0,1750.0,1.02,0.39,0.35,-0.11,-0.16,0.47,26.75,73.5,60.5,10.42,-2.06,1.7,1,486
0,636281.0,17.0,9.0,0.0,0.0,1837.0,0.45,0.29,0.27,-0.21,-0.06,1.03,18.25,64.87,75.62,9.35,-3.68,1.31,1,486
0,636498.0,36.0,12.0,0.0,0.0,2063.0,-0.11,0.4,0.32,-0.26,0.0,1.16,6.69,51.63,83.75,7.74,-5.71,0.97,1,486
0,636716.0,492.0,17.0,6.0,0.0,1751.0,-0.73,-0.18,0.38,-0.26,-0.15,0.8,356.19,39.0,88.0,5.44,-7.8,0.64,1,486
0,636932.0,1699.0,1645.0,9.0,7.0,2325.0,-0.75,0.16,0.16,-0.07,-0.01,0.07,351.56,33.81,90.75,4.7,-7.98,0.05,1,486
0,637152.0,859.0,2300.0,5.0,0.0,2088.0,-0.03,0.26,0.2,0.13,-0.06,-0.85,356.06,39.13,90.5,6.22,-7.28,0.13,1,486
0,637374.0,70.0,2726.0,1.0,12.0,1938.0,-0.31,0.34,0.36,0.12,-0.02,-1.21,7.0,51.69,89.19,7.45,-5.64,0.45,1,486
0,637593.0,28.0,1007.0,0.0,1.0,1297.0,0.97,0.64,0.3,0.11,0.11,-1.24,21.94,67.56,86.75,10.08,-2.97,0.53,1,486
0,637812.0,26.0,7.0,0.0,151.0,1939.0,1.15,0.13,0.34,0.18,0.25,-0.38,30.75,75.75,58.81,10.65,-1.89,1.62,1,486
0,638032.0,29.0,13.0,0.0,12.0,1895.0,0.5,0.24,0.35,-0.07,-0.17,0.48,28.19,74.06,62.0,10.23,-2.01,1.58,1,486
0,638249.0,28.0,7.0,1.0,5.0,2072.0,0.0,0.15,0.24,-0.11,-0.02,0.79,20.37,66.31,74.12,9.31,-3.55,1.29,1,486
0,638469.0,19.0,7.0,0.0,17.0,2077.0,0.27,0.25,0.36,-0.13,0.01,1.01,11.13,56.31,80.19,8.61,-5.21,1.24,1,486
0,638687.0,431.0,13.0,2.0,5.0,1711.0,-0.38,0.0,0.44,-0.25,-0.14,0.92,359.87,43.69,84.56,6.39,-7.05,1.11,1,486
0,638902.0,1644.0,2031.0,6.0,7.0,2331.0,-1.05,0.25,0.19,-0.17,-0.01,0.17,354.25,37.13,88.56,4.86,-7.57,0.37,1,486
0,639122.0,1148.0,2004.0,5.0,0.0,2107.0,-0.25,0.18,0.15,0.04,-0.07,-0.69,358.75,41.63,89.62,6.73,-7.06,0.23,1,486
0,639339.0,392.0,2568.0,1.0,6.0,2019.0,0.38,0.32,0.35,0.03,-0.05,-0.86,7.81,51.63,89.69,8.07,-5.76,0.38,1,486
0,639556.0,13.0,2451.0,0.0,6.0,1947.0,0.19,0.29,0.11,0.02,0.0,-0.73,17.5,61.63,89.81,8.82,-4.36,0.12,1,486
0,639781.0,25.0,5.0,0.0,2.0,2046.0,0.05,-0.03,0.02,0.2,0.29,-0.12,21.69,65.75,82.81,8.99,-4.02,0.52,1,486
0,639998.0,40.0,5.0,1.0,5.0,2067.0,-0.04,0.03,0.36,0.23,0.08,0.06,20.5,66.12,76.94,8.92,-3.82,1.25,1,486
0,640223.0,31.0,7.0,0.0,0.0,1957.0,0.0,0.16,0.32,-0.04,-0.03,0.03,19.56,65.75,74.87,8.93,-3.72,1.36,1,486
0,640444.0,251.0,7.0,5.0,5.0,1977.0,0.06,0.06,0.25,-0.1,-0.05,0.01,20.25,65.87,76.62,8.99,-3.78,1.18,1,486
0,640663.0,805.0,11.0,6.0,3.0,2014.0,0.19,-0.15,-0.18,-0.22,-0.1,0.05,21.56,65.75,79.87,9.13,-4.12,0.5,1,486
0,640883.0,37.0,9.0,3.0,0.0,2063.0,0.21,-0.1,0.02,0.06,0.1,0.07,21.69,65.5,80.75,9.14,-4.11,0.67,1,486
0,641097.0,822.0,11.0,4.0,0.0,1914.0,0.46,0.01,0.12,-0.11,-0.16,-0.31,23.62,67.87,85.0,9.55,-3.63,0.42,1,486
0,641313.0,48.0,2143.0,0.0,2.0,1252.0,-0.68,0.03,0.06,-0.02,-0.08,-0.52,27.5,71.44,87.94,8.78,-2.83,0.06,1,486
0,641531.0,44.0,17.0,3.0,2.0,1287.0,0.56,0.1,0.25,0.15,0.39,-0.57,32.75,76.56,73.19,10.1,-2.07,0.91,1,486
0,641745.0,35.0,13.0,9.0,0.0,1859.0,0.41,0.17,-0.03,-0.08,-0.16,0.48,33.19,76.75,72.06,9.54,-1.9,0.66,1,486
0,641963.0,29.0,11.0,0.0,0.0,1983.0,0.51,-0.06,0.27,0.01,-0.02,0.03,29.87,73.69,73.62,9.75,-2.74,0.91,1,486
0,642183.0,28.0,9.0,7.0,0.0,1972.0,-0.64,-0.11,0.07,0.0,0.04,0.02,28.31,72.19,76.0,8.69,-3.02,0.79,1,486
0,642399.0,34.0,10.0,5.0,7.0,1993.0,0.19,-0.05,0.06,-0.03,-0.02,-0.03,29.44,72.94,74.12,9.57,-2.81,0.84,1,486
0,642614.0,53.0,3.0,0.0,0.0,1933.0,0.0,-0.04,0.07,0.0,0.0,-0.02,29.56,73.0,74.44,9.35,-2.81,0.84,1,486
0,642834.0,85.0,18.0,7.0,79.0,1511.0,-0.06,0.01,0.08,-0.01,0.03,-0.02,29.94,73.19,73.94,9.32,-2.7,0.86,1,486
0,643048.0,37.0,19.0,7.0,7.0,1272.0,-0.1,0.07,0.24,-0.07,-0.16,-0.26,31.69,75.12,76.75,9.07,-2.64,0.67,1,486
0,643272.0,41.0,6.0,5.0,0.0,1200.0,-0.73,-0.13,-0.08,0.01,0.17,-0.1,36.13,79.44,85.62,8.9,-1.92,0.05,1,486
0,643493.0,29.0,10.0,0.0,17.0,1861.0,0.63,0.0,0.16,0.09,0.15,-0.21,38.44,81.0,60.38,10.31,-1.32,0.91,1,486
0,643705.0,33.0,10.0,4.0,0.0,1823.0,-0.33,-0.04,0.07,0.03,0.05,0.15,37.19,80.06,64.81,9.32,-1.57,0.79,1,486
0,643926.0,21.0,7.0,0.0,6.0,1918.0,0.03,0.0,0.09,-0.0,0.01,-0.03,36.94,79.75,62.06,9.67,-1.55,0.92,1,486
0,644148.0,23.0,7.0,0.0,45.0,1949.0,0.01,-0.04,0.1,0.01,0.02,-0.03,37.13,79.81,60.69,9.66,-1.55,0.94,1,486
0,644365.0,20.0,16.0,5.0,13.0,1880.0,0.02,-0.05,0.08,0.01,0.03,-0.01,37.31,79.81,58.56,9.65,-1.51,0.99,1,486
0,644587.0,21.0,0.0,28.0,36.0,1817.0,-0.01,-0.08,0.07,0.01,0.02,-0.02,37.44,79.75,56.75,9.63,-1.53,1.02,1,486
0,644803.0,17.0,7.0,175.0,122.0,1864.0,-0.02,0.01,0.06,0.01,0.03,-0.03,37.88,79.81,53.88,9.62,-1.38,1.08,1,486
0,645021.0,25.0,10.0,0.0,10.0,1224.0,-0.27,-0.15,0.09,-0.03,-0.16,-0.19,38.44,80.31,52.69,9.39,-1.44,1.07,1,486
0,645237.0,30.0,3.0,0.0,2.0,1722.0,0.19,-0.05,0.06,-0.08,-0.02,0.56,39.75,82.19,63.13,9.9,-1.23,0.66,1,486
0,645453.0,25.0,21.0,0.0,0.0,1379.0,-0.02,0.14,0.11,-0.13,-0.12,1.38,28.69,70.75,84.94,9.19,-3.19,0.38,1,486
0,645672.0,701.0,27.0,1.0,2.0,1576.0,-0.2,0.41,0.19,-0.16,-0.15,1.58,11.5,52.69,90.25,7.5,-5.64,0.14,1,486
0,645890.0,1145.0,183.0,7.0,0.0,1798.0,-0.39,0.29,0.12,0.04,-0.03,1.53,351.62,32.81,91.75,4.92,-7.94,-0.12,1,486
0,646106.0,26.0,10.0,0.0,10.0,1929.0,-1.36,-0.32,0.39,0.1,-0.01,0.07,340.12,21.87,90.37,2.29,-9.41,0.33,1,486
0,646326.0,37.0,23.0,1.0,5.0,1783.0,0.11,0.31,0.19,0.08,-0.07,-1.07,347.62,30.62,89.69,5.11,-8.12,0.23,1,486
0,646545.0,43.0,1339.0,5.0,1.0,1596.0,-0.65,0.28,0.2,-0.03,-0.04,-1.27,0.19,43.75,89.19,6.22,-6.7,0.3,1,486
0,646765.0,43.0,1319.0,5.0,0.0,1437.0,-0.61,0.09,0.15,0.03,0.11,-1.23,15.81,59.19,88.69,7.87,-4.82,0.27,1,486
0,646982.0,30.0,9.0,0.0,6.0,1236.0,0.45,0.2,0.25,0.1,0.17,-1.3,31.87,75.31,82.37,9.97,-2.13,0.59,1,486
0,647199.0,23.0,0.0,0.0,5.0,1819.0,0.1,-0.26,0.13,0.11,0.27,0.37,38.75,81.19,50.38,9.8,-1.41,1.08,1,486
0,647412.0,39.0,23.0,9.0,0.0,1995.0,0.07,0.01,0.19,0.03,-0.04,1.04,28.94,72.75,70.19,9.63,-2.65,1.12,1,486
0,647631.0,25.0,2.0,0.0,6.0,2174.0,0.02,0.22,0.32,-0.08,-0.05,1.22,15.06,59.38,80.0,8.5,-4.83,1.15,1,486
0,647850.0,39.0,19.0,2.0,0.0,2392.0,-0.2,0.28,0.32,-0.2,0.01,1.19,1.0,44.31,84.69,6.65,-6.69,0.96,1,486
0,648066.0,373.0,9.0,4.0,3.0,1875.0,-0.21,0.03,0.27,-0.18,0.01,0.92,349.56,31.19,87.31,4.78,-8.39,0.65,1,486
0,648288.0,1669.0,1287.0,8.0,10.0,2163.0,-1.27,-0.02,0.1,-0.06,-0.04,-0.34,345.5,26.94,89.62,3.17,-8.76,0.15,1,486
0,648505.0,574.0,1914.0,4.0,0.0,1917.0,0.24,0.14,0.28,0.02,-0.07,-1.08,354.31,36.38,90.06,6.14,-7.68,0.26,1,486
0,648723.0,36.0,2471.0,2.0,0.0,1839.0,0.27,0.36,0.26,-0.0,-0.04,-1.23,8.06,50.56,90.62,7.92,-5.77,0.19,1,486
0,648947.0,24.0,2661.0,0.0,6.0,1717.0,-0.07,0.29,0.23,-0.03,-0.03,-1.24,23.0,65.5,91.81,8.89,-3.65,0.1,1,486
0,649167.0,23.0,13.0,0.0,1.0,1669.0,0.42,-0.13,0.17,0.32,0.67,-0.51,34.25,76.62,74.94,9.97,-2.26,0.82,1,486
0,649385.0,21.0,3.0,0.0,11.0,1774.0,1.23,0.29,0.28,-0.11,-0.29,0.57,34.44,77.25,64.87,10.79,-1.72,1.16,1,486
0,649606.0,18.0,7.0,0.0,21.0,1927.0,0.15,0.06,0.16,-0.09,-0.06,1.21,22.31,65.31,81.12,9.23,-3.8,0.78,1,486
0,649824.0,41.0,18.0,5.0,0.0,2149.0,0.14,0.13,0.14,-0.14,-0.04,1.25,8.38,50.81,85.94,7.32,-6.06,0.67,1,486
0,650041.0,502.0,5.0,0.0,7.0,1830.0,-1.21,-0.03,0.24,-0.18,0.03,1.2,354.69,35.69,88.62,4.5,-7.99,0.43,1,486
0,650257.0,1388.0,1973.0,7.0,0.0,2347.0,-1.33,-0.11,0.11,-0.11,0.01,0.07,347.69,28.19,91.25,3.74,-8.74,0.03,1,486
0,650472.0,2361.0,25.0,21.0,0.0,2067.0,-0.02,-0.09,-0.39,0.24,-0.19,-0.64,352.5,33.44,91.81,6.19,-8.26,-0.26,1,486
0,650691.0,2363.0,12.0,11.0,19.0,1963.0,0.74,0.33,0.29,0.15,-0.07,-0.45,357.81,40.63,90.56,7.13,-7.1,0.22,1,486
0,650905.0,3513.0,11.0,46.0,0.0,1964.0,-0.18,0.34,0.38,0.15,-0.07,0.02,358.5,43.25,88.81,6.53,-6.79,0.52,1,486
0,651120.0,2934.0,9.0,15.0,0.0,2055.0,0.29,-0.04,0.16,-0.07,-0.01,-0.11,357.75,42.81,88.37,6.96,-7.23,0.35,1,486
0,651336.0,3100.0,1.0,26.0,0.0,2025.0,-3.13,0.47,-0.57,0.09,0.09,-0.1,358.31,43.19,87.37,3.58,-6.65,-0.24,1,486
0,651553.0,1.0,11.0,0.0,19.0,1724.0,0.71,0.07,0.45,0.04,0.09,0.29,356.69,42.0,85.5,7.28,-7.19,1.01,1,486
0,651767.0,13.0,7.0,11.0,3.0,2205.0,-0.04,0.16,0.13,0.09,0.07,0.06,354.69,39.88,84.31,6.54,-7.32,0.93,1,486
0,651985.0,21.0,9.0,1014.0,29.0,2355.0,0.18,0.43,0.26,0.03,-0.02,-0.0,354.06,39.88,82.69,6.06,-6.96,1.31,1,486
0,652205.0,1276.0,21.0,18.0,0.0,1685.0,0.13,0.31,0.48,-0.17,-0.04,-0.18,355.0,41.56,84.19,6.64,-6.98,1.22,1,486
0,652425.0,3814.0,6.0,35.0,5.0,2099.0,0.02,0.22,0.04,0.07,-0.06,-0.15,357.44,43.69,84.87,6.79,-6.83,0.67,1,486
0,652644.0,4095.0,19.0,47.0,0.0,2159.0,-0.03,0.14,0.25,0.02,0.01,-0.04,357.75,44.75,83.62,6.86,-6.77,1.02,1,486
0,652859.0,4095.0,13.0,40.0,89.0,2173.0,-0.18,0.01,0.1,-0.03,0.06,0.02,358.06,44.81,84.06,6.6,-6.83,0.69,1,486
0,653078.0,4095.0,0.0,29.0,7.0,2168.0,0.11,0.31,0.17,-0.03,-0.05,0.0,358.37,45.38,83.87,7.27,-6.56,0.92,1,486
0,653298.0,4095.0,230.0,57.0,3.0,1597.0,-0.16,0.33,-0.05,-0.01,-0.04,-0.02,358.69,45.69,84.69,6.85,-6.48,0.57,1,486
0,653513.0,4095.0,35.0,69.0,646.0,1689.0,-0.5,0.3,0.25,0.03,0.14,0.11,357.87,44.56,83.37,6.36,-6.63,1.06,1,486
0,653731.0,4095.0,7.0,443.0,311.0,2338.0,-0.19,0.41,0.22,-0.01,-0.02,0.03,357.37,43.63,82.31,6.57,-6.61,1.16,1,486
0,653947.0,4060.0,6.0,167.0,669.0,2275.0,-0.13,0.33,0.09,-0.03,-0.05,0.01,357.56,43.63,83.0,6.63,-6.7,0.96,1,486
0,654162.0,3893.0,19.0,37.0,0.0,2066.0,-0.28,0.33,-0.01,-0.12,-0.18,-0.13,357.94,44.44,85.0,6.55,-6.84,0.6,1,486
0,654379.0,2205.0,421.0,19.0,0.0,2139.0,0.12,0.25,0.1,-0.27,-0.02,-0.15,0.19,46.25,87.37,7.3,-6.47,0.46,1,486
0,654597.0,3495.0,665.0,27.0,0.0,2174.0,-0.11,-0.31,-0.02,-0.02,0.01,-0.1,1.81,46.44,89.06,6.99,-7.06,0.07,1,486
0,654809.0,3391.0,1836.0,23.0,21.0,1992.0,-0.07,-0.08,0.11,-0.03,-0.0,-0.03,2.37,47.25,88.69,7.13,-6.72,0.25,1,486
0,655023.0,3567.0,2143.0,26.0,0.0,2083.0,-0.18,-0.05,-0.13,0.0,0.0,-0.03,3.0,47.5,88.5,7.04,-6.66,0.02,1,486
0,655239.0,3083.0,1718.0,21.0,0.0,1598.0,0.69,0.19,0.32,-0.03,0.08,0.06,3.31,47.75,88.12,7.4,-6.64,0.33,1,486
0,655460.0,2403.0,7.0,17.0,140.0,2268.0,0.29,-0.1,-0.02,0.02,0.03,-0.01,2.44,46.0,86.87,7.35,-6.9,0.34,1,486
0,655678.0,2065.0,0.0,8.0,311.0,2162.0,-0.03,-0.12,0.16,-0.01,0.0,0.0,2.12,45.44,85.94,6.96,-6.97,0.65,1,486
0,655897.0,2014.0,1.0,13.0,421.0,2245.0,-0.11,-0.16,0.07,-0.01,0.01,0.01,2.19,45.31,86.12,6.85,-7.04,0.53,1,486
0,656112.0,3055.0,123.0,31.0,0.0,1626.0,-0.39,-0.05,-0.05,-0.02,-0.08,-0.19,2.62,46.56,87.5,6.73,-6.78,0.23,1,486
0,656328.0,3165.0,1333.0,31.0,0.0,2044.0,-0.72,-0.07,-0.01,0.03,-0.04,-0.58,5.37,49.75,87.94,6.76,-6.39,0.21,1,486
0,656548.0,3129.0,1745.0,30.0,3.0,1955.0,0.06,-0.02,-0.02,0.04,-0.04,-0.91,14.38,59.56,87.06,8.51,-4.98,0.22,1,486
0,656762.0,2317.0,1243.0,13.0,0.0,1908.0,0.46,0.24,0.12,0.1,0.06,-0.48,21.75,67.56,84.87,9.52,-3.47,0.45,1,486
0,656979.0,2204.0,11.0,21.0,503.0,1955.0,0.28,-0.22,0.06,0.0,0.12,0.23,23.56,69.06,79.5,9.44,-3.67,0.7,1,486
0,657200.0,3039.0,5.0,26.0,308.0,2003.0,-1.57,-0.12,-0.38,-0.11,-0.01,0.87,17.62,62.44,82.62,7.12,-4.62,0.19,1,486
0,657415.0,3845.0,0.0,29.0,4.0,2185.0,0.02,-0.02,-0.03,-0.09,-0.01,0.95,7.81,51.56,85.69,7.72,-6.13,0.26,1,486
0,657632.0,2571.0,18.0,21.0,0.0,2248.0,-0.48,0.34,0.2,0.01,0.1,0.9,357.0,40.5,86.87,5.79,-7.6,0.85,1,486
0,657852.0,3486.0,23.0,27.0,0.0,1779.0,-0.67,0.27,0.18,0.08,-0.03,-0.02,350.31,34.56,86.44,4.89,-7.78,0.68,1,486
0,658069.0,2662.0,19.0,26.0,0.0,2295.0,-0.35,0.18,0.2,0.04,-0.12,-0.72,354.06,39.69,85.69,5.95,-7.29,0.76,1,486
0,658289.0,2543.0,11.0,25.0,13.0,2159.0,0.24,-0.14,0.02,0.01,-0.03,-0.75,2.56,48.88,85.31,7.68,-6.51,0.54,1,486
0,658509.0,47.0,10.0,9.0,0.0,1982.0,-0.34,0.03,-0.05,0.16,0.0,-0.76,11.56,58.13,82.87,8.02,-5.02,0.59,1,486
0,658725.0,45.0,19.0,7.0,809.0,1328.0,0.21,-0.08,0.45,0.05,0.06,-0.41,18.69,66.37,79.62,9.41,-3.77,1.01,1,486
0,658945.0,23.0,8.0,0.0,9.0,1917.0,0.69,-0.06,0.2,-0.17,-0.03,0.62,18.44,65.31,81.06,9.35,-3.89,0.69,1,486
0,659166.0,27.0,9.0,0.0,10.0,2069.0,0.27,0.02,0.23,-0.13,-0.04,0.8,11.13,56.5,85.56,8.46,-5.36,0.65,1,486
0,659381.0,23.0,10.0,0.0,0.0,2263.0,-0.16,0.01,0.17,-0.07,0.02,0.73,2.25,47.06,87.81,7.02,-6.65,0.42,1,486
0,659602.0,22.0,12.0,5.0,0.0,2455.0,-0.3,0.04,0.06,-0.04,0.05,0.66,354.06,37.81,88.19,5.7,-7.7,0.3,1,486
0,659817.0,183.0,11.0,3.0,0.0,2343.0,-0.87,0.0,0.24,0.09,-0.06,-0.34,351.0,34.94,87.87,4.75,-8.03,0.53,1,486
0,660034.0,59.0,12.0,0.0,11.0,1627.0,-0.14,0.05,0.3,0.05,-0.05,-0.87,358.12,43.56,87.06,6.61,-7.03,0.66,1,486
0,660253.0,20.0,8.0,0.0,3.0,2088.0,1.02,0.45,0.15,-0.01,-0.07,-0.73,7.81,53.69,87.5,8.93,-5.34,0.4,1,486
0,660468.0,894.0,11.0,6.0,0.0,1956.0,0.77,0.0,0.25,0.01,-0.1,-0.11,12.25,58.5,89.25,8.88,-4.8,0.37,1,486
0,660686.0,3933.0,9.0,30.0,8.0,2083.0,0.03,0.35,0.2,-0.27,-0.21,0.42,10.75,56.44,93.31,8.54,-4.89,-0.1,1,486
0,660906.0,3449.0,13.0,297.0,0.0,1540.0,-0.75,0.03,-0.34,-0.18,0.13,0.47,7.06,49.63,94.81,6.72,-6.29,-0.88,1,486
0,661120.0,1776.0,7.0,730.0,0.0,2130.0,-0.22,-0.3,0.06,0.02,0.15,0.24,5.31,46.88,94.75,7.42,-6.71,-0.32,1,486
0,661335.0,790.0,7.0,173.0,17.0,2189.0,-0.39,0.14,0.02,-0.01,-0.05,0.23,2.62,44.44,94.94,6.47,-6.83,-0.57,1,486
0,661556.0,1631.0,7.0,519.0,6.0,2282.0,-0.19,0.14,0.22,-0.04,-0.09,0.14,0.06,42.25,96.12,6.4,-7.06,-0.55,1,486
0,661771.0,1943.0,21.0,217.0,0.0,1701.0,-0.04,0.01,-0.01,-0.04,-0.17,0.04,358.12,40.5,97.56,6.19,-7.26,-0.99,1,486
0,661988.0,2813.0,1.0,21.0,5.0,2203.0,-0.16,0.07,0.04,-0.03,0.02,-0.1,358.94,41.25,98.06,6.34,-7.3,-0.99,1,486
0,662206.0,3505.0,11.0,31.0,0.0,2183.0,-0.1,-0.05,0.0,0.04,0.02,-0.01,359.94,41.88,97.62,6.45,-7.28,-0.97,1,486
0,662419.0,3325.0,5.0,10.0,7.0,2285.0,-0.11,0.02,0.12,0.09,0.05,-0.05,359.31,41.81,96.0,6.42,-7.24,-0.64,1,486
0,662633.0,3175.0,8.0,21.0,1.0,2264.0,-0.09,0.11,0.06,-0.0,-0.0,-0.0,359.75,42.31,95.25,6.5,-7.1,-0.6,1,486
0,662849.0,2924.0,11.0,23.0,3.0,1659.0,-0.3,-0.04,0.21,-0.03,0.01,-0.01,0.06,42.25,95.31,6.91,-7.0,-0.48,1,486
0,663068.0,2789.0,17.0,17.0,0.0,1693.0,-0.08,0.12,0.03,0.04,0.07,0.11,359.94,41.88,95.44,6.46,-7.14,-0.66,1,486
0,663281.0,2653.0,0.0,25.0,11.0,2410.0,-0.22,-0.12,0.05,-0.02,0.01,0.06,359.12,40.63,94.06,6.07,-7.55,-0.44,1,486
0,663504.0,2895.0,9.0,22.0,8.0,2316.0,-0.08,0.05,0.1,0.02,0.04,-0.04,359.25,40.56,93.87,6.29,-7.37,-0.4,1,486
0,663726.0,4095.0,19.0,37.0,0.0,1688.0,0.28,0.24,0.13,0.0,-0.26,-0.17,359.69,41.69,94.62,6.81,-7.04,-0.46,1,486
0,663949.0,4095.0,9.0,39.0,0.0,2200.0,-0.07,0.03,-0.05,-0.0,-0.04,-0.05,0.62,43.0,95.62,6.61,-7.09,-0.76,1,486
0,664170.0,4095.0,11.0,43.0,0.0,2150.0,0.12,0.33,0.17,-0.04,-0.04,0.01,0.88,43.25,95.94,6.84,-6.76,-0.56,1,486
0,664387.0,3966.0,7.0,29.0,4.0,2196.0,0.52,0.28,0.34,-0.01,-0.02,0.0,1.0,43.31,96.62,7.25,-6.79,-0.48,1,486
0,664605.0,2747.0,11.0,17.0,9.0,2235.0,-0.19,0.3,0.01,-0.03,-0.0,0.0,0.69,43.06,96.75,6.5,-6.8,-0.83,1,486
0,664821.0,4095.0,16.0,35.0,0.0,1588.0,-0.08,0.41,0.28,-0.1,0.04,-0.15,2.62,44.25,96.87,6.76,-6.55,-0.56,1,486
0,665042.0,2683.0,6.0,13.0,11.0,2327.0,-0.94,-0.41,-0.73,-0.09,0.12,0.07,5.12,44.38,96.94,5.9,-7.0,-0.01,1,486
0,665262.0,1191.0,8.0,1.0,0.0,2366.0,-0.19,-0.24,-0.06,-0.02,0.0,0.01,4.62,42.75,96.37,6.45,-7.37,-0.88,1,486
0,665481.0,1311.0,9.0,5.0,0.0,2343.0,-0.11,-0.17,0.13,0.02,-0.03,0.01,4.06,42.56,96.19,6.52,-7.34,-0.65,1,486
0,665701.0,3961.0,19.0,28.0,0.0,1629.0,0.08,-0.15,-0.24,0.1,-0.06,-0.21,4.0,43.75,97.19,6.87,-7.17,-1.13,1,486
0,665921.0,3435.0,2.0,24.0,5.0,2090.0,-0.96,-0.14,0.16,0.25,0.01,-0.75,5.62,47.75,95.94,6.29,-6.69,-0.52,1,486
0,666136.0,3161.0,121.0,19.0,5.0,1899.0,-0.08,0.33,0.02,0.28,0.1,-1.43,16.94,61.44,93.37,8.59,-4.22,-0.22,1,486
0,666356.0,1695.0,0.0,3.0,7.0,1827.0,0.99,0.07,0.45,0.19,0.31,-0.7,30.0,76.31,83.31,10.53,-2.16,0.75,1,486
0,666572.0,927.0,14.0,25.0,0.0,1930.0,0.62,-0.26,0.0,-0.14,-0.03,0.37,30.25,75.81,71.75,10.13,-2.53,0.75,1,486
0,666790.0,2921.0,4.0,19.0,10.0,1909.0,0.26,0.06,0.03,-0.3,-0.08,1.31,22.5,66.19,84.81,9.23,-3.87,0.39,1,486
0,667010.0,1870.0,1.0,5.0,7.0,2181.0,-0.3,-0.11,-0.04,-0.21,0.09,0.89,11.25,52.13,89.06,7.38,-6.19,0.04,1,486
0,667225.0,1627.0,4.0,9.0,7.0,2335.0,-0.11,-0.08,-0.05,-0.01,0.0,0.98,1.31,41.31,91.37,6.35,-7.44,-0.22,1,486
0,667441.0,453.0,143.0,6.0,0.0,1805.0,0.5,-0.12,0.34,0.0,-0.5,0.13,351.94,33.06,91.69,5.86,-8.33,0.09,1,486
0,667656.0,837.0,2288.0,3.0,0.0,2159.0,-0.4,0.18,0.12,-0.07,-0.05,-1.15,356.5,38.25,92.87,5.75,-7.43,-0.27,1,486
0,667879.0,18.0,2431.0,0.0,8.0,1916.0,0.34,0.36,-0.02,-0.01,-0.05,-1.53,13.94,55.38,95.19,8.49,-5.06,-0.53,1,486
0,668093.0,29.0,2283.0,3.0,0.0,1260.0,0.33,-0.05,-0.1,0.23,0.19,-1.0,29.19,71.62,94.87,9.64,-3.12,-0.36,1,486
0,668314.0,71.0,9.0,3.0,0.0,1572.0,0.28,-0.56,0.22,0.26,0.43,-0.01,35.06,79.62,73.87,9.93,-2.25,0.71,1,486
0,668527.0,28.0,19.0,7.0,0.0,1944.0,1.13,0.07,0.25,-0.22,-0.14,0.85,30.5,74.87,74.0,10.6,-2.38,0.95,1,486
0,668745.0,2044.0,9.0,21.0,0.0,2117.0,-0.25,0.08,0.02,-0.35,-0.04,1.64,16.62,58.56,88.31,8.17,-5.07,0.15,1,486
0,668967.0,2649.0,19.0,25.0,0.0,2313.0,-0.81,0.14,0.01,-0.22,0.05,1.19,1.62,40.81,92.12,5.59,-7.27,-0.26,1,486
0,669186.0,1898.0,13.0,5.0,25.0,2512.0,-1.34,-0.18,0.18,-0.02,0.03,0.27,353.56,31.31,92.69,3.54,-8.61,-0.2,1,486
0,669406.0,2795.0,11.0,21.0,5.0,1754.0,-0.47,-0.04,0.05,0.04,-0.09,-0.76,356.87,36.06,93.81,6.18,-7.83,-0.33,1,486
0,669627.0,1327.0,1.0,5.0,4.0,1562.0,-0.09,0.12,0.01,0.05,0.06,-1.31,8.5,48.5,94.44,7.25,-6.34,-0.48,1,486
0,669845.0,697.0,5.0,1.0,3.0,1337.0,0.62,0.35,-0.02,0.12,0.02,-1.33,24.75,65.44,93.37,9.54,-3.71,-0.26,1,486
0,670068.0,1274.0,23.0,13.0,0.0,1209.0,0.26,-0.09,0.11,0.09,-0.05,-0.67,34.38,76.5,92.69,9.79,-2.38,0.0,1,486
0,670285.0,2401.0,16.0,19.0,8.0,1308.0,1.09,0.28,0.26,-0.1,-0.09,1.06,31.12,73.25,91.44,10.48,-2.53,0.19,1,486
0,670503.0,3641.0,29.0,26.0,0.0,1515.0,-0.29,0.04,0.04,-0.13,-0.1,1.51,16.06,57.06,94.06,7.85,-5.38,-0.34,1,486
0,670719.0,2829.0,26.0,21.0,0.0,2423.0,-0.7,0.02,0.17,0.11,0.03,0.97,0.13,41.13,93.31,5.74,-7.34,-0.25,1,486
0,670933.0,1515.0,8.0,4.0,3.0,1799.0,-0.05,0.19,0.49,0.12,0.13,0.35,352.0,33.56,91.12,4.3,-8.08,0.08,1,486
0,671149.0,31.0,18.0,0.0,3.0,1724.0,0.04,0.04,0.21,0.04,0.04,-0.39,353.44,34.56,89.44,5.33,-8.08,0.34,1,486
0,671370.0,1338.0,12.0,9.0,7.0,1691.0,0.02,0.16,0.28,-0.04,-0.03,-0.66,0.25,41.56,89.62,6.53,-7.16,0.33,1,486
0,671585.0,1806.0,22.0,14.0,16.0,1523.0,-0.79,0.06,0.07,-0.03,-0.03,-1.13,10.31,51.81,91.44,6.98,-5.91,-0.08,1,486
0,671806.0,919.0,23.0,7.0,0.0,1327.0,0.22,0.22,-0.06,-0.01,-0.03,-1.2,26.31,67.81,92.69,9.3,-3.47,-0.24,1,486
0,672026.0,30.0,12.0,1.0,7.0,1183.0,1.42,0.43,0.11,0.06,-0.01,-0.82,37.31,79.56,91.5,11.08,-1.26,0.07,1,486
0,672246.0,31.0,1.0,0.0,0.0,1907.0,1.09,0.16,0.22,-0.06,-0.11,0.81,35.38,78.0,82.81,10.67,-1.92,0.47,1,486
0,672464.0,1663.0,4.0,10.0,9.0,1979.0,0.38,0.47,0.15,-0.11,-0.05,1.44,21.62,63.63,90.19,9.1,-4.0,0.12,1,486
0,672685.0,2533.0,7.0,23.0,0.0,2291.0,0.07,0.17,0.0,-0.08,-0.01,1.33,5.5,46.56,91.75,7.11,-6.65,-0.2,1,486
0,672903.0,1740.0,4.0,13.0,0.0,2461.0,-0.38,-0.03,0.23,0.02,0.06,0.76,352.87,33.38,91.44,4.95,-8.25,0.02,1,486
0,673121.0,1209.0,25.0,9.0,0.0,1821.0,-1.48,-0.19,0.32,0.0,-0.19,-0.43,349.69,30.25,90.62,3.45,-8.66,0.22,1,486
0,673336.0,1189.0,3.0,0.0,9.0,2121.0,-0.32,0.16,0.12,-0.0,-0.06,-1.07,357.81,39.56,91.62,5.99,-7.32,-0.09,1,486
0,673553.0,30.0,33.0,0.0,29.0,1483.0,0.35,0.42,0.17,-0.02,-0.01,-1.3,12.31,54.0,92.37,8.24,-5.37,-0.17,1,486
0,673771.0,35.0,19.0,0.0,0.0,1295.0,0.64,0.2,0.04,0.0,0.03,-1.18,28.5,69.81,93.12,9.85,-3.17,-0.14,1,486
0,673984.0,39.0,19.0,3.0,0.0,1183.0,0.62,-0.08,0.17,0.09,0.21,-0.43,39.13,80.56,93.25,11.48,-1.65,-0.02,1,486
0,674202.0,447.0,21.0,7.0,0.0,1828.0,0.85,0.04,0.07,-0.0,-0.05,1.08,34.38,76.56,83.75,10.65,-2.15,0.4,1,486
0,674421.0,2445.0,13.0,20.0,0.0,2036.0,-0.55,0.17,0.35,-0.06,-0.07,1.74,16.06,58.13,89.56,7.77,-4.99,0.39,1,486
0,674635.0,2873.0,0.0,20.0,0.0,2299.0,0.36,0.16,0.27,-0.07,-0.13,1.24,358.37,40.25,91.12,5.97,-7.26,0.15,1,486
0,674850.0,1512.0,20.0,7.0,0.0,2450.0,-0.14,0.07,0.12,-0.01,0.14,0.43,348.87,29.37,90.69,4.67,-8.46,0.02,1,486
0,675069.0,2055.0,9.0,11.0,8.0,1797.0,0.66,0.52,0.03,-0.0,-0.15,-0.75,349.56,30.44,90.06,5.63,-7.93,0.02,1,486
0,675284.0,1607.0,25.0,10.0,2.0,1637.0,-0.06,0.42,0.08,-0.04,-0.03,-1.23,1.06,42.25,90.5,6.53,-6.82,0.01,1,486
0,675500.0,427.0,8.0,6.0,0.0,1447.0,1.39,0.61,-0.08,0.04,0.06,-1.19,15.44,56.56,90.37,9.64,-4.68,-0.11,1,486
0,675720.0,27.0,24.0,0.0,0.0,1275.0,0.62,0.35,0.03,0.13,0.05,-0.95,28.0,69.87,88.69,9.86,-2.92,0.11,1,486
0,675936.0,20.0,3.0,0.0,0.0,1690.0,1.54,0.19,-0.03,0.09,0.42,-0.04,35.69,78.37,81.94,11.14,-1.75,0.23,1,486
0,676151.0,335.0,19.0,13.0,0.0,1812.0,1.2,0.52,0.08,-0.07,-0.07,1.02,30.5,72.94,81.19,10.55,-2.39,0.51,1,486
0,676368.0,2059.0,0.0,10.0,0.0,2036.0,0.03,0.38,0.17,-0.14,-0.05,1.38,15.5,57.31,87.31,8.22,-5.01,0.41,1,486
0,676585.0,2671.0,20.0,23.0,0.0,2220.0,-0.41,0.44,0.0,-0.15,0.02,1.02,1.75,42.25,90.0,6.18,-6.8,0.0,1,486
0,676798.0,1080.0,1.0,3.0,16.0,2411.0,-0.25,0.21,0.18,-0.03,0.06,0.37,354.12,33.38,90.25,4.7,-8.1,0.07,1,486
0,677015.0,903.0,5.0,11.0,0.0,2494.0,-0.42,0.21,0.03,0.04,-0.1,-0.77,356.0,35.5,89.87,5.78,-7.75,0.14,1,486
0,677233.0,1053.0,9.0,5.0,0.0,1597.0,1.33,0.6,0.14,0.05,-0.03,-1.16,7.75,48.06,89.81,8.63,-5.94,0.15,1,486
0,677448.0,40.0,19.0,6.0,0.0,1427.0,-0.11,0.13,-0.03,0.07,0.09,-1.08,20.37,61.0,89.0,8.51,-4.51,0.05,1,486
0,677668.0,43.0,37.0,0.0,0.0,1259.0,0.36,0.16,-0.01,0.07,0.05,-1.01,34.63,75.56,84.62,9.88,-2.16,0.21,1,486
0,677888.0,23.0,11.0,0.0,3.0,1213.0,1.41,0.3,0.09,0.02,0.13,0.46,39.69,80.69,78.06,11.09,-1.24,0.42,1,486
0,678107.0,841.0,21.0,3.0,5.0,1790.0,0.22,0.33,0.17,-0.08,-0.07,1.17,30.06,70.75,86.69,9.77,-3.05,0.31,1,486
0,678326.0,2456.0,8.0,10.0,11.0,1981.0,0.18,0.35,0.24,-0.1,-0.08,1.26,15.25,55.25,90.19,8.25,-5.23,0.22,1,486
0,678542.0,2615.0,7.0,23.0,5.0,2140.0,-0.02,0.46,0.13,-0.07,0.01,1.0,2.0,41.19,91.06,6.36,-6.96,0.0,1,486
0,678760.0,1224.0,5.0,3.0,3.0,2325.0,-0.54,0.11,0.23,0.01,0.05,0.26,354.31,32.88,90.62,4.77,-8.12,0.14,1,486
0,678979.0,2471.0,21.0,21.0,1.0,1747.0,-0.59,0.17,-0.01,0.02,0.01,-0.7,357.56,36.5,90.37,5.24,-7.7,-0.07,1,486
0,679194.0,1870.0,12.0,9.0,0.0,1579.0,0.29,0.37,0.05,0.1,0.0,-1.16,8.19,48.06,90.62,7.59,-6.17,-0.01,1,486
0,679413.0,29.0,19.0,0.0,0.0,1391.0,0.33,0.56,0.29,0.17,0.02,-1.32,20.25,61.5,88.31,9.01,-3.99,0.43,1,486
0,679632.0,43.0,989.0,0.0,1.0,1225.0,1.22,0.33,0.23,0.02,-0.07,-0.78,33.69,75.56,83.06,10.78,-1.85,0.58,1,486
0,679846.0,265.0,17.0,4.0,5.0,1288.0,1.2,0.42,0.07,-0.08,-0.03,0.9,32.56,73.81,86.69,10.62,-2.3,0.22,1,486
0,680066.0,2590.0,5.0,17.0,0.0,1479.0,0.6,0.59,0.17,-0.06,-0.05,1.36,18.44,59.06,90.06,9.02,-4.43,0.16,1,486
0,680283.0,2065.0,23.0,17.0,4.0,1641.0,-0.78,0.36,0.14,-0.07,0.09,0.94,5.37,45.5,91.19,6.43,-6.63,0.02,1,486
0,680501.0,1323.0,17.0,10.0,0.0,2293.0,0.16,0.08,0.01,-0.02,0.12,0.18,1.5,40.13,91.0,6.54,-7.29,0.01,1,486
0,680718.0,277.0,7.0,0.0,9.0,2397.0,-0.23,0.18,0.13,0.22,-0.01,0.02,0.25,39.56,89.81,6.01,-7.37,0.15,1,486
0,680936.0,27.0,2.0,0.0,0.0,2389.0,0.58,0.32,0.51,0.16,-0.04,-0.83,3.0,43.94,86.75,7.44,-6.66,0.91,1,486
0,681150.0,31.0,21.0,0.0,0.0,1528.0,1.56,0.7,0.27,-0.01,-0.03,-1.03,13.13,55.0,85.19,7.87,-5.09,0.89,1,486
0,681369.0,37.0,20.0,4.0,0.0,1324.0,0.0,0.61,-0.13,-0.07,-0.14,-1.24,27.25,68.94,83.44,9.15,-2.88,0.26,1,486
0,681586.0,36.0,4.0,0.0,3.0,1204.0,1.42,0.27,0.12,-0.09,-0.21,-0.62,37.94,79.44,80.75,11.07,-1.44,0.39,1,486
0,681803.0,936.0,3.0,1.0,11.0,1738.0,0.22,0.17,0.11,-0.09,-0.1,0.78,35.5,76.25,86.69,10.08,-2.17,0.24,1,486
0,682020.0,2279.0,1.0,18.0,7.0,1875.0,0.27,0.39,0.16,-0.06,-0.05,1.21,23.44,63.75,91.06,9.07,-3.92,0.08,1,486
0,682240.0,2748.0,0.0,19.0,0.0,1983.0,-0.39,0.14,0.31,-0.06,0.04,1.23,8.94,48.81,91.87,6.99,-6.3,0.1,1,486
0,682459.0,2357.0,0.0,11.0,10.0,2207.0,-0.24,0.26,0.22,-0.01,0.06,0.96,356.75,35.88,91.69,5.51,-7.67,0.0,1,486
0,682675.0,749.0,29.0,3.0,5.0,1861.0,-0.68,-0.02,0.27,0.03,0.01,0.05,350.69,29.31,91.0,4.11,-8.56,0.12,1,486
0,682893.0,1691.0,12.0,7.0,0.0,1711.0,-0.3,0.38,0.3,0.01,0.0,-1.02,356.69,36.5,91.87,5.53,-7.49,0.04,1,486
0,683108.0,680.0,11.0,9.0,0.0,1509.0,-0.18,0.42,0.3,-0.0,0.07,-1.39,12.0,51.75,92.25,7.6,-5.53,0.07,1,486
0,683326.0,35.0,18.0,0.0,0.0,1315.0,0.72,0.6,0.0,-0.01,0.01,-1.27,28.94,68.31,92.81,9.87,-2.9,-0.18,1,486
0,683545.0,472.0,31.0,0.0,0.0,1183.0,1.93,0.41,0.28,0.01,-0.13,-0.52,40.06,79.75,94.94,11.58,-1.31,0.13,1,486
0,683765.0,1579.0,0.0,1.0,7.0,1775.0,-0.11,0.38,0.16,-0.07,-0.09,1.02,33.88,73.44,92.69,9.74,-2.58,-0.04,1,486
0,683985.0,2800.0,0.0,20.0,9.0,1967.0,-0.53,0.33,0.07,-0.05,0.01,1.32,19.37,58.44,93.37,7.82,-4.78,-0.22,1,486
0,684205.0,2701.0,29.0,15.0,0.0,2216.0,-0.1,0.18,0.39,-0.02,0.04,0.93,6.19,45.0,92.94,6.55,-7.04,-0.16,1,486
0,684424.0,1939.0,13.0,22.0,0.0,2383.0,-0.17,0.09,0.2,0.04,0.07,0.57,358.06,36.44,92.06,5.47,-7.93,-0.07,1,486
0,684649.0,22.0,19.0,0.0,0.0,1757.0,-0.09,0.08,0.18,0.1,0.03,-0.23,355.5,34.25,90.75,4.61,-8.23,0.01,1,486
0,684869.0,1066.0,11.0,1.0,2.0,1643.0,0.28,0.36,0.25,0.05,-0.04,-0.93,2.87,42.81,90.37,7.02,-6.76,0.2,1,486
0,685086.0,772.0,18.0,6.0,0.0,1461.0,0.09,0.31,-0.07,0.15,-0.06,-1.6,17.37,58.0,89.37,8.41,-4.87,-0.02,1,486
0,685304.0,37.0,5.0,1.0,0.0,1262.0,0.37,0.2,0.31,0.17,0.19,-1.13,32.56,74.62,79.12,9.83,-2.34,0.79,1,486
0,685525.0,73.0,18.0,9.0,0.0,1619.0,0.53,0.38,0.18,-0.12,-0.07,0.53,39.44,81.25,78.12,9.94,-1.43,0.6,1,486
0,685745.0,1935.0,12.0,8.0,0.0,1811.0,0.1,0.42,0.13,-0.15,-0.11,1.13,30.0,70.5,90.56,9.35,-2.84,0.1,1,486
0,685962.0,3115.0,14.0,24.0,0.0,1996.0,0.8,0.5,0.26,-0.14,-0.09,1.29,16.75,56.06,93.37,8.87,-5.05,-0.07,1,486
0,686184.0,3061.0,9.0,26.0,0.0,2210.0,0.16,0.33,0.09,-0.0,0.02,1.14,0.75,39.69,93.75,6.43,-7.18,-0.4,1,486
0,686407.0,31.0,1.0,5.0,0.0,2360.0,-0.78,0.03,0.3,0.11,0.11,0.24,352.44,31.0,91.5,4.37,-8.42,0.18,1,486
0,686632.0,664.0,29.0,11.0,0.0,1762.0,-0.05,-0.02,0.34,-0.01,-0.11,-0.73,355.56,34.75,90.94,5.59,-8.03,0.2,1,486
0,686857.0,36.0,0.0,3.0,11.0,2087.0,0.07,0.37,0.25,-0.03,0.03,-1.12,7.12,46.5,92.0,7.24,-6.26,-0.05,1,486
0,687081.0,41.0,17.0,6.0,0.0,1390.0,-0.12,0.5,0.36,0.08,0.09,-1.48,23.25,62.31,91.37,8.62,-3.91,0.26,1,486
0,687306.0,39.0,2551.0,1.0,0.0,1230.0,1.44,0.11,-0.1,-0.07,-0.25,-0.5,36.56,75.62,91.94,10.95,-2.3,-0.19,1,486
0,687526.0,29.0,2217.0,0.0,0.0,1299.0,1.09,0.2,0.26,0.04,-0.03,0.85,32.81,72.31,94.75,9.77,-2.68,-0.03,1,486
0,687747.0,23.0,2363.0,0.0,0.0,1483.0,0.59,0.32,0.34,0.0,0.09,1.26,19.69,59.13,91.81,9.01,-4.69,0.18,1,486
0,687965.0,1001.0,2485.0,5.0,0.0,1674.0,0.27,0.23,0.26,-0.06,0.07,1.33,4.37,43.5,92.56,7.03,-6.86,-0.05,1,486
0,688184.0,35.0,2196.0,7.0,0.0,1838.0,-0.01,0.03,0.17,0.04,0.07,0.87,352.31,30.31,91.31,4.87,-8.46,-0.01,1,486
0,688402.0,40.0,24.0,2.0,0.0,1899.0,-1.29,-0.09,0.51,0.09,-0.06,-0.31,347.06,25.06,89.44,3.52,-8.76,0.38,1,486
0,688619.0,29.0,11.0,0.0,4.0,1656.0,0.39,0.29,0.34,0.07,-0.09,-1.42,359.37,38.25,88.31,7.19,-6.75,0.83,1,486
0,688838.0,39.0,7.0,8.0,0.0,1543.0,-0.35,0.58,0.34,0.21,0.08,-1.15,12.81,52.63,86.62,7.43,-5.35,0.68,1,486
0,689055.0,31.0,27.0,5.0,8.0,1874.0,1.04,0.77,0.41,0.16,0.05,-0.96,25.56,66.56,80.5,10.04,-3.06,1.04,1,486
0,689277.0,50.0,1767.0,2.0,0.0,1832.0,0.06,0.37,0.01,-0.05,-0.24,0.09,29.19,71.0,80.0,9.34,-2.76,0.56,1,486
0,689495.0,40.0,2037.0,1.0,0.0,1364.0,0.94,0.2,0.57,-0.25,-0.06,0.86,24.81,66.0,88.06,9.87,-3.84,0.68,1,486
0,689711.0,41.0,3223.0,5.0,16.0,1548.0,-0.59,0.03,0.02,-0.44,-0.14,1.34,14.63,52.56,95.0,7.92,-5.88,-0.32,1,486
0,689931.0,44.0,3862.0,6.0,0.0,1691.0,-0.83,0.14,-0.08,-0.09,0.05,0.84,3.44,38.63,97.0,5.52,-7.52,-0.9,1,486
0,690150.0,54.0,19.0,7.0,0.0,2341.0,0.18,0.12,0.39,0.09,0.09,0.05,357.81,32.88,95.44,5.51,-8.07,-0.38,1,486
0,690367.0,23.0,5.0,0.0,10.0,1801.0,0.44,-0.1,0.32,0.23,-0.02,-0.73,0.62,36.38,93.25,6.32,-7.94,-0.11,1,486
0,690585.0,31.0,493.0,3.0,0.0,1673.0,-0.49,-0.07,0.38,0.25,-0.05,-0.62,6.31,44.31,91.06,6.4,-7.04,0.26,1,486
0,690803.0,36.0,901.0,7.0,0.0,1501.0,0.45,0.39,0.52,0.13,-0.02,-1.06,15.25,55.19,88.69,8.5,-5.2,0.65,1,486
0,691019.0,35.0,1525.0,3.0,0.0,1919.0,1.48,0.4,0.23,-0.05,-0.18,-0.51,24.56,65.25,90.62,10.39,-3.69,0.18,1,486
0,691236.0,38.0,2845.0,5.0,0.0,1939.0,0.19,0.17,0.4,-0.11,-0.2,0.11,24.81,65.56,95.06,9.12,-3.87,0.03,1,486
0,691453.0,39.0,1157.0,0.0,13.0,1371.0,0.22,-0.06,0.12,0.02,0.1,0.29,23.87,63.94,96.94,9.03,-4.34,-0.39,1,486
0,691666.0,22.0,0.0,4.0,0.0,1973.0,0.25,0.21,0.24,0.04,-0.03,0.22,20.81,60.81,94.44,8.81,-4.56,-0.11,1,486
0,691882.0,24.0,81.0,0.0,1.0,1992.0,1.44,0.24,0.15,0.05,0.03,0.69,16.69,57.31,93.81,9.7,-5.02,-0.2,1,486
0,692103.0,31.0,1431.0,12.0,0.0,2122.0,0.1,0.41,0.68,0.05,0.0,1.36,1.31,42.56,91.5,6.74,-6.8,0.49,1,486
0,692316.0,26.0,3213.0,0.0,3.0,2269.0,-0.5,-0.01,0.74,-0.08,-0.5,0.57,348.37,29.5,91.19,4.29,-8.56,0.52,1,486
0,692536.0,1171.0,1828.0,5.0,0.0,2253.0,-1.24,0.26,0.56,-0.12,0.0,-0.73,349.19,29.94,92.75,3.43,-8.22,-0.04,1,486
0,692753.0,297.0,2733.0,3.0,0.0,1543.0,0.34,0.63,0.52,-0.02,-0.02,-1.73,7.81,48.25,95.25,7.66,-5.85,-0.07,1,486
0,692971.0,40.0,2777.0,3.0,10.0,1319.0,1.32,0.31,0.54,-0.0,0.06,-1.24,27.0,67.19,98.5,10.36,-3.43,-0.02,1,486
0,693192.0,204.0,2515.0,5.0,0.0,1214.0,1.09,0.05,0.33,0.03,0.07,-0.17,36.0,76.12,103.5,10.61,-2.22,-0.21,1,486
0,693410.0,1622.0,17.0,2.0,8.0,1341.0,1.04,0.3,0.19,-0.05,-0.11,0.88,31.06,71.19,96.06,10.3,-2.91,-0.14,1,486
0,693627.0,2975.0,20.0,24.0,0.0,1562.0,-0.02,0.53,0.4,-0.07,-0.21,1.63,13.81,53.94,95.5,7.8,-5.33,-0.16,1,486
0,693848.0,4061.0,18.0,29.0,6.0,1693.0,-1.0,0.1,-1.66,0.1,-0.02,0.94,356.62,36.63,94.87,4.85,-7.73,-2.34,1,486
0,694064.0,1591.0,31.0,11.0,0.0,2472.0,-0.79,0.0,0.51,0.06,0.07,0.08,349.5,30.06,92.87,4.12,-8.46,0.08,1,486
0,694281.0,1469.0,17.0,10.0,0.0,1758.0,0.16,0.61,0.54,-0.03,-0.08,-0.91,354.12,34.56,92.19,5.8,-7.39,0.22,1,486
0,694500.0,1508.0,0.0,11.0,0.0,2301.0,-0.62,0.33,0.4,0.04,-0.01,-1.23,7.06,47.63,92.69,6.7,-6.16,0.08,1,486
0,694718.0,30.0,5.0,0.0,0.0,1431.0,-0.48,0.65,0.35,0.07,0.15,-1.08,21.37,62.25,91.87,8.63,-4.2,0.27,1,486
0,694936.0,216.0,0.0,0.0,2.0,1679.0,0.09,0.35,0.44,0.06,0.08,-0.89,33.81,75.25,91.12,9.77,-2.33,0.48,1,486
0,695158.0,29.0,0.0,0.0,0.0,1699.0,-0.27,-0.08,-0.03,0.05,0.26,0.37,39.06,80.69,88.62,9.4,-1.66,0.0,1,486
0,695376.0,2023.0,0.0,11.0,0.0,1829.0,0.05,0.52,0.5,-0.07,-0.09,1.41,28.69,70.19,91.37,9.28,-2.79,0.42,1,486
0,695595.0,3283.0,1.0,25.0,3.0,2085.0,-1.11,0.36,0.44,-0.19,-0.1,1.51,11.0,51.38,93.62,6.54,-5.74,0.05,1,486
0,695810.0,2684.0,19.0,20.0,4.0,1757.0,0.07,0.23,0.31,0.03,0.03,1.23,355.87,35.5,94.0,4.77,-7.75,-0.03,1,486
0,696027.0,632.0,17.0,2.0,8.0,1902.0,-0.89,-0.06,0.65,0.09,0.07,0.27,345.87,25.19,92.25,3.29,-8.92,0.3,1,486
0,696249.0,1459.0,18.0,9.0,9.0,1771.0,0.0,0.33,0.53,-0.06,-0.06,-0.93,351.37,31.5,92.62,5.13,-8.0,0.15,1,486
0,696468.0,41.0,758.0,3.0,0.0,1607.0,-0.79,0.52,0.36,-0.08,0.08,-1.18,4.94,44.38,94.31,7.07,-6.51,-0.07,1,486
0,696688.0,183.0,1.0,5.0,23.0,1391.0,0.47,0.21,0.05,0.02,-0.04,-1.5,22.44,61.25,96.62,9.07,-4.46,-0.48,1,486
0,696907.0,667.0,11.0,0.0,22.0,1209.0,0.55,0.33,0.37,0.03,0.02,-1.06,37.63,76.87,98.37,10.1,-1.85,0.04,1,486
0,697121.0,1673.0,19.0,0.0,5.0,1775.0,1.44,0.25,0.23,-0.03,-0.07,0.89,38.88,78.0,98.0,11.01,-1.83,-0.06,1,486
0,697339.0,3612.0,10.0,37.0,0.0,1918.0,-0.83,0.34,0.44,-0.08,-0.09,1.5,23.12,61.94,97.25,7.82,-4.22,-0.13,1,486
0,697557.0,4095.0,19.0,33.0,0.0,2055.0,0.18,0.29,0.21,0.01,0.04,1.2,7.19,45.56,96.94,7.18,-6.51,-0.61,1,486
0,697771.0,4095.0,9.0,33.0,2.0,1797.0,0.0,0.12,0.53,0.02,0.02,0.87,355.37,33.75,95.5,5.36,-8.03,-0.15,1,486
0,697988.0,2230.0,39.0,21.0,0.0,1881.0,-0.88,-0.08,0.4,0.03,0.01,-0.03,348.69,26.94,94.06,3.56,-8.8,-0.21,1,486
0,698207.0,1606.0,23.0,13.0,0.0,1735.0,-0.45,0.28,0.68,0.02,0.06,-1.15,356.44,35.44,94.5,5.32,-7.61,0.05,1,486
0,698422.0,45.0,11.0,1.0,0.0,1531.0,1.57,0.9,0.43,0.06,0.07,-1.43,12.94,51.5,94.56,7.63,-5.31,-0.21,1,486
0,698641.0,29.0,7.0,3.0,0.0,1332.0,1.84,0.95,0.38,0.13,0.0,-1.51,29.31,68.75,93.87,10.09,-2.66,0.03,1,486
0,698860.0,47.0,21.0,3.0,0.0,1180.0,0.54,0.09,0.44,-0.06,-0.12,-0.82,41.44,81.56,92.69,10.24,-1.32,0.38,1,486
0,699076.0,2347.0,0.0,17.0,3.0,1709.0,0.34,0.13,0.22,-0.08,-0.18,1.05,38.56,77.62,99.25,9.89,-2.03,-0.13,1,486
0,699296.0,3699.0,7.0,29.0,0.0,1893.0,-0.57,0.39,0.52,-0.07,-0.09,1.54,21.81,60.56,97.69,7.89,-4.5,-0.12,1,486
0,699512.0,3880.0,11.0,30.0,0.0,1670.0,-0.42,0.02,0.38,0.04,0.05,1.28,4.87,43.69,96.12,6.35,-7.01,-0.37,1,486
0,699729.0,2983.0,2.0,22.0,13.0,1823.0,-0.36,0.18,0.46,0.13,0.03,0.89,350.75,30.31,93.69,4.58,-8.26,-0.08,1,486
0,699947.0,1419.0,13.0,10.0,0.0,1880.0,-1.18,-0.21,0.85,0.05,-0.01,-0.22,346.87,26.31,92.19,3.2,-8.98,0.51,1,486
0,700162.0,1915.0,15.0,6.0,1.0,1714.0,-0.48,0.12,0.48,-0.06,-0.03,-1.14,355.69,35.94,93.37,5.28,-7.79,0.01,1,486
0,700376.0,1623.0,0.0,4.0,5.0,2254.0,-0.26,0.33,0.47,0.0,0.04,-1.36,12.31,52.19,95.0,7.56,-5.54,-0.04,1,486
0,700597.0,969.0,5.0,5.0,7.0,1309.0,0.18,0.39,0.41,-0.05,0.01,-1.32,28.5,67.69,97.37,9.31,-3.17,-0.06,1,486
0,700816.0,389.0,0.0,0.0,0.0,1789.0,1.5,0.01,0.4,-0.0,-0.04,-0.87,42.94,81.75,105.25,11.2,-1.34,0.03,1,486
0,701033.0,1555.0,2.0,3.0,2.0,1279.0,1.21,0.21,0.3,0.05,-0.07,0.95,37.94,77.31,98.81,10.06,-2.09,0.11,1,486
0,701253.0,2931.0,0.0,23.0,7.0,1455.0,0.54,0.28,0.49,0.0,-0.03,1.24,23.0,63.0,94.69,9.28,-4.14,0.12,1,486
0,701468.0,3051.0,0.0,21.0,19.0,2029.0,-0.41,0.28,0.41,-0.03,0.02,1.26,8.69,48.5,93.5,7.06,-6.34,0.21,1,486
0,701682.0,2679.0,17.0,21.0,11.0,2293.0,-0.36,0.24,0.46,0.07,0.08,0.96,355.62,34.94,92.5,5.25,-7.77,0.1,1,486
0,701900.0,2725.0,3.0,21.0,0.0,2329.0,-1.49,-0.06,0.47,-0.06,-0.29,0.03,348.0,27.31,91.87,2.99,-8.76,0.16,1,486
0,702118.0,2430.0,0.0,15.0,0.0,2152.0,-1.15,0.11,0.69,-0.05,-0.06,-1.06,353.94,33.81,93.06,4.59,-7.8,0.02,1,486
0,702335.0,893.0,110.0,1.0,0.0,2039.0,0.55,0.45,0.49,-0.05,-0.0,-1.31,9.88,49.5,95.19,6.83,-5.96,-0.22,1,486
0,702553.0,191.0,56.0,0.0,6.0,1317.0,-0.55,0.53,0.55,-0.08,0.13,-1.46,27.75,66.19,97.69,8.42,-3.37,0.02,1,486
0,702771.0,33.0,21.0,0.0,0.0,1167.0,1.7,0.16,1.19,-0.01,0.1,-0.91,45.0,82.0,112.19,11.42,-1.02,0.69,1,486
0,702988.0,1837.0,5.0,0.0,29.0,1754.0,0.26,0.03,0.41,0.09,0.01,1.1,38.06,75.69,103.69,9.61,-2.41,-0.12,1,486
0,703205.0,2846.0,7.0,29.0,0.0,1966.0,0.08,0.24,0.5,0.1,0.01,1.3,21.62,60.75,96.94,8.64,-4.49,-0.07,1,486
0,703418.0,3037.0,7.0,29.0,0.0,2239.0,-0.7,0.02,0.45,0.07,-0.01,1.25,6.12,46.19,94.37,6.37,-6.73,-0.06,1,486
0,703635.0,633.0,10.0,0.0,3.0,2288.0,-0.73,0.13,0.33,-0.01,0.06,1.24,351.44,30.94,91.94,4.31,-8.27,0.04,1,486
0,703856.0,2164.0,1593.0,9.0,0.0,2464.0,-0.65,0.07,0.82,-0.01,-0.03,0.04,341.56,21.56,91.62,2.96,-9.04,0.55,1,486
0,704072.0,1004.0,2005.0,3.0,0.0,2253.0,-0.33,0.62,0.62,-0.04,-0.08,-1.2,347.81,28.5,91.37,4.44,-7.93,0.4,1,486
0,704290.0,37.0,2503.0,2.0,0.0,1528.0,0.02,0.27,0.54,-0.06,-0.01,-1.36,4.94,45.56,93.75,7.12,-6.47,0.08,1,486
0,704510.0,29.0,2697.0,0.0,0.0,1339.0,-0.24,0.49,0.32,-0.14,-0.03,-1.44,23.62,63.0,97.69,8.49,-3.9,-0.26,1,486
0,704724.0,36.0,17.0,0.0,2.0,1683.0,0.57,0.61,0.02,-0.03,0.46,-0.84,39.94,77.56,106.69,10.17,-1.32,-0.53,1,486
0,704944.0,343.0,9.0,0.0,5.0,1740.0,1.22,0.23,0.26,0.05,-0.0,0.62,41.38,79.06,103.5,10.84,-1.62,-0.17,1,486
0,705160.0,2056.0,17.0,9.0,4.0,2031.0,0.1,0.58,0.4,0.1,-0.05,1.3,26.69,65.5,97.12,9.03,-3.43,-0.1,1,486
0,705375.0,2712.0,11.0,22.0,0.0,2235.0,-0.14,0.32,0.5,0.05,-0.01,1.14,11.13,50.81,93.94,7.39,-5.94,0.07,1,486
0,705596.0,2650.0,7.0,18.0,11.0,2372.0,0.06,0.36,0.5,0.03,0.04,1.01,357.37,37.13,92.69,5.98,-7.44,0.13,1,486
0,705818.0,3323.0,24.0,25.0,0.0,2361.0,-1.36,0.21,0.45,-0.04,0.0,0.11,348.44,28.31,92.25,3.29,-8.41,0.1,1,486
0,706032.0,3425.0,0.0,24.0,0.0,1695.0,-0.02,0.3,0.49,-0.06,-0.07,-0.91,353.94,33.81,93.0,5.5,-7.77,0.05,1,486
0,706250.0,2743.0,481.0,21.0,0.0,1513.0,0.17,0.89,0.56,-0.12,-0.04,-1.26,8.06,47.69,95.62,7.92,-5.69,-0.26,1,486
0,706470.0,2461.0,1157.0,12.0,0.0,1319.0,0.03,0.8,0.12,-0.12,-0.05,-1.32,24.75,63.0,101.0,8.77,-3.55,-0.72,1,486
0,706686.0,1483.0,23.0,5.0,6.0,1230.0,0.85,0.54,0.09,0.15,0.57,-0.47,37.31,75.0,106.12,10.34,-1.84,-0.55,1,486
0,706904.0,1448.0,23.0,12.0,0.0,1829.0,0.7,0.17,0.33,0.11,-0.01,1.02,33.56,72.87,94.94,10.04,-2.78,0.08,1,486
0,707123.0,2469.0,19.0,25.0,0.0,2109.0,-0.73,0.18,0.53,0.08,0.07,1.26,18.12,58.5,91.75,7.62,-4.93,0.37,1,486
0,707339.0,2859.0,5.0,21.0,18.0,2313.0,-0.25,0.28,0.42,-0.04,0.03,0.99,5.37,45.75,90.87,6.76,-6.55,0.31,1,486
0,707554.0,2760.0,7.0,16.0,5.0,1803.0,-0.47,0.31,0.39,-0.11,0.09,0.8,355.75,35.06,91.12,5.1,-7.74,0.22,1,486
0,707774.0,3495.0,37.0,25.0,1.0,1763.0,-0.31,0.13,0.13,-0.16,-0.12,-0.46,354.06,32.44,93.0,4.95,-8.12,-0.3,1,486
0,707991.0,3859.0,9.0,31.0,5.0,1623.0,0.22,0.1,0.51,-0.09,-0.1,-1.0,3.62,41.75,95.37,6.75,-7.16,-0.17,1,486
0,708212.0,3701.0,24.0,31.0,0.0,1445.0,-0.64,0.32,0.36,-0.12,0.02,-1.18,16.94,54.38,98.94,7.32,-5.3,-0.52,1,486
0,708428.0,3101.0,19.0,29.0,0.0,1267.0,0.45,0.59,0.11,-0.12,0.15,-1.31,33.38,69.19,107.0,9.66,-2.61,-0.89,1,486
0,708648.0,1151.0,2.0,0.0,8.0,1879.0,3.55,-0.27,-0.49,-0.02,0.04,-0.09,45.94,81.5,111.62,13.26,-1.6,-1.02,1,486
0,708869.0,2662.0,8.0,21.0,0.0,1822.0,0.09,0.24,0.49,0.18,0.05,1.58,34.06,71.19,100.0,9.33,-3.0,-0.03,1,486
0,709088.0,2697.0,1.0,12.0,2.0,2039.0,-0.18,0.47,0.39,0.08,0.0,1.37,13.81,52.69,93.94,7.53,-5.55,0.0,1,486
0,709303.0,3007.0,4.0,26.0,0.0,2200.0,-0.33,0.23,0.59,-0.05,0.1,1.17,358.62,37.31,92.37,6.11,-7.53,0.05,1,486
0,709525.0,1967.0,10.0,8.0,0.0,1868.0,-0.46,0.09,0.47,-0.07,0.01,0.15,350.25,27.87,92.25,3.7,-8.66,0.08,1,486
0,709743.0,2681.0,9.0,23.0,12.0,1725.0,0.4,0.51,0.34,-0.03,-0.06,-1.01,357.87,35.75,93.69,5.71,-7.2,-0.12,1,486
0,709964.0,895.0,17.0,0.0,7.0,1525.0,-0.39,0.76,0.71,-0.05,0.27,-1.4,13.81,50.88,94.87,7.21,-5.39,0.18,1,486
0,710180.0,636.0,11.0,40.0,4.0,1327.0,0.18,0.29,0.55,-0.07,0.05,-1.23,31.75,67.75,98.31,9.25,-3.37,0.01,1,486
0,710400.0,1225.0,13.0,7.0,0.0,1171.0,1.03,0.08,0.2,-0.07,-0.12,-0.9,44.69,80.06,108.75,10.7,-1.42,-0.35,1,486
0,710619.0,2283.0,1.0,13.0,13.0,1691.0,0.5,0.17,0.23,0.1,0.01,1.06,41.0,76.87,104.37,9.67,-2.12,-0.12,1,486
0,710837.0,3053.0,21.0,30.0,0.0,1994.0,0.41,0.44,0.52,0.1,0.01,1.27,24.44,61.88,96.31,9.01,-4.25,0.02,1,486
0,711058.0,3479.0,1.0,29.0,10.0,2148.0,0.26,0.27,0.46,0.03,-0.03,1.17,9.56,47.69,94.06,7.45,-6.37,-0.01,1,486
0,711277.0,3416.0,7.0,26.0,0.0,2311.0,-1.44,0.38,0.52,0.03,0.09,1.35,353.31,31.69,92.81,3.7,-7.94,0.1,1,486
0,711493.0,3483.0,19.0,27.0,0.0,1881.0,-1.13,0.01,0.29,0.07,-0.05,-0.34,345.94,24.56,92.06,2.94,-8.89,-0.03,1,486
0,711711.0,2607.0,5.0,18.0,3.0,1717.0,0.09,0.46,0.86,0.11,-0.07,-1.12,354.25,34.44,91.31,5.72,-7.55,0.68,1,486
0,711928.0,41.0,256.0,0.0,0.0,1514.0,0.0,0.76,0.51,-0.01,0.12,-1.57,10.56,50.81,91.0,7.63,-5.47,0.31,1,486
0,712145.0,33.0,2.0,0.0,2.0,1294.0,0.98,0.68,0.44,0.04,0.14,-1.38,29.87,69.87,89.75,10.19,-2.68,0.45,1,486
0,712367.0,17.0,1599.0,0.0,0.0,1187.0,1.18,0.35,0.38,-0.02,-0.06,-0.08,39.88,80.0,89.94,10.84,-1.34,0.38,1,486
0,712584.0,2131.0,12.0,7.0,1.0,1365.0,0.8,0.52,0.57,-0.06,-0.11,1.45,29.06,69.12,91.94,9.97,-2.96,0.44,1,486
0,712802.0,3468.0,342.0,28.0,0.0,1578.0,-0.56,0.3,0.51,-0.07,-0.03,1.63,9.63,49.19,93.06,6.76,-6.2,0.16,1,486
0,713019.0,4095.0,479.0,31.0,0.0,1749.0,0.78,-0.03,0.27,-0.01,0.0,1.05,353.37,32.63,92.69,6.07,-8.28,-0.11,1,486
0,713240.0,3335.0,31.0,25.0,0.0,1933.0,-0.61,-0.13,0.62,-0.01,0.03,0.55,342.0,21.0,91.87,2.44,-9.15,0.24,1,486
