class,time,fsr1,fsr2,fsr3,fsr4,angle,accx,accy,accz,gyro1,gyro2,gyro3,orient1,orient2,orient3,acc2x,acc2y,acc2z,participant,serialnumber
0,330827.0,22.0,9.0,1.0,0.0,1572.0,0.32,0.34,0.14,-0.08,0.04,1.36,91.12,66.62,70.25,9.32,-3.31,1.45,1,600
0,331045.0,27.0,11.0,0.0,0.0,1783.0,-0.26,0.07,0.29,-0.09,0.04,1.17,77.0,52.06,77.5,7.4,-5.89,1.59,1,600
0,331260.0,23.0,10.0,0.0,2.0,1934.0,-0.62,0.15,0.35,-0.18,0.08,1.09,65.06,38.88,81.06,5.53,-7.38,1.54,1,600
0,331477.0,25.0,3.0,0.0,6.0,2082.0,-1.2,0.24,0.17,-0.21,0.11,0.67,55.81,27.19,83.87,3.28,-8.42,1.1,1,600
0,331699.0,36.0,3.0,0.0,3.0,2006.0,-0.07,0.03,0.14,-0.02,-0.07,-0.62,56.69,28.25,85.56,4.56,-8.57,0.81,1,600
0,331914.0,23.0,1.0,0.0,3.0,1890.0,0.26,0.22,0.29,0.08,-0.06,-0.91,64.87,37.31,85.0,6.28,-7.49,0.97,1,600
0,332134.0,24.0,0.0,1.0,3.0,1751.0,0.54,0.26,0.2,0.09,-0.01,-0.87,75.31,48.63,83.19,7.96,-6.1,0.97,1,600
0,332354.0,24.0,0.0,0.0,1.0,1597.0,-0.4,0.04,0.31,0.15,0.05,-0.87,85.56,59.56,79.62,9.06,-4.84,1.16,1,600
0,332571.0,35.0,0.0,0.0,0.0,1288.0,-0.45,0.08,0.48,0.15,0.05,-0.8,95.37,70.37,71.31,10.26,-2.97,1.58,1,600
0,332795.0,21.0,3014.0,0.0,2.0,1435.0,1.06,0.05,0.34,-0.13,-0.15,0.2,99.87,74.94,68.25,10.53,-2.32,1.26,1,600
0,333015.0,21.0,1460.0,0.0,1.0,1575.0,1.32,0.13,0.42,-0.08,-0.01,0.73,94.31,68.81,76.81,10.44,-3.37,1.23,1,600
0,333232.0,45.0,1252.0,2.0,0.0,1465.0,0.36,0.16,0.02,-0.03,0.02,0.91,84.81,58.81,81.25,8.71,-4.91,0.79,1,600
0,333451.0,27.0,2364.0,0.0,0.0,1573.0,-0.02,0.55,-0.02,-0.05,0.06,0.93,74.25,47.81,83.31,7.25,-5.98,0.74,1,600
0,333664.0,29.0,381.0,1.0,2.0,1743.0,0.5,0.21,0.37,-0.08,0.04,0.66,65.69,38.38,84.44,6.23,-7.32,0.88,1,600
0,333880.0,31.0,5.0,0.0,7.0,1995.0,-1.2,0.22,0.06,-0.01,0.04,0.3,60.0,31.81,84.87,3.97,-8.06,0.8,1,600
0,334101.0,30.0,6.0,0.0,4.0,2041.0,-0.56,0.09,0.24,0.13,-0.03,-0.19,59.81,31.5,83.5,4.56,-8.21,1.18,1,600
0,334316.0,23.0,8.0,0.0,0.0,1979.0,1.13,0.28,-0.03,0.09,-0.07,-0.65,64.31,37.13,82.19,4.36,-7.55,1.43,1,600
0,334535.0,29.0,13.0,1.0,0.0,1629.0,1.54,0.63,0.2,0.1,-0.04,-0.92,72.31,46.19,80.12,8.68,-5.98,1.36,1,600
0,334760.0,37.0,21.0,0.0,17.0,1502.0,2.91,0.86,0.24,0.14,-0.04,-1.1,84.0,58.75,74.81,11.3,-4.03,1.56,1,600
0,334975.0,29.0,17.0,0.0,5.0,1311.0,1.67,0.5,0.14,0.15,-0.01,-0.92,93.19,68.56,65.56,10.83,-2.67,1.62,1,600
0,335202.0,36.0,13.0,0.0,7.0,1240.0,-1.41,-0.15,0.51,0.07,-0.02,-0.68,103.0,77.44,43.44,8.15,-1.61,2.05,1,600
0,335419.0,28.0,9.0,0.0,2.0,1371.0,0.34,0.0,0.61,0.05,0.1,0.24,106.75,80.31,31.44,10.0,-0.88,2.03,1,600
0,335641.0,27.0,9.0,0.0,2.0,1477.0,0.09,0.16,0.02,-0.16,-0.08,1.12,98.87,74.19,61.0,9.53,-2.16,1.32,1,600
0,335864.0,37.0,23.0,1.0,5.0,1492.0,-0.67,0.03,0.01,-0.15,-0.01,1.18,86.31,61.25,76.62,7.92,-4.55,1.1,1,600
0,336082.0,40.0,11.0,1.0,6.0,1658.0,-0.3,0.37,0.06,-0.16,0.03,0.98,74.81,48.56,81.87,7.04,-6.04,0.98,1,600
0,336304.0,36.0,23.0,1.0,0.0,1759.0,0.82,0.19,0.34,-0.07,0.05,0.71,65.94,38.56,83.81,6.93,-7.43,1.16,1,600
0,336521.0,30.0,9.0,0.0,0.0,2011.0,-0.58,0.12,0.45,-0.01,0.04,0.34,60.25,31.75,84.19,4.57,-8.16,1.29,1,600
0,336740.0,36.0,19.0,0.0,0.0,1848.0,-1.9,0.02,0.42,0.03,-0.02,-0.19,59.19,30.75,83.94,3.13,-8.34,1.31,1,600
0,336960.0,28.0,13.0,3.0,6.0,1757.0,-1.23,0.13,0.28,0.05,-0.06,-0.68,63.88,36.56,83.62,4.66,-7.64,1.15,1,600
0,337175.0,22.0,0.0,0.0,1.0,1780.0,0.39,0.42,0.0,0.12,-0.06,-0.82,72.0,45.44,82.25,5.95,-6.58,0.84,1,600
0,337394.0,22.0,0.0,0.0,0.0,1625.0,-0.31,0.29,0.4,0.24,0.06,-1.16,82.56,57.31,76.81,8.31,-4.69,1.54,1,600
0,337614.0,29.0,11.0,2.0,0.0,1307.0,0.03,0.09,0.39,0.23,0.09,-1.02,96.19,71.62,60.81,9.34,-2.6,1.9,1,600
0,337827.0,27.0,17.0,0.0,3.0,1191.0,0.68,-0.03,0.15,-0.01,-0.1,-0.43,104.5,78.62,37.38,10.3,-1.17,1.68,1,600
0,338051.0,29.0,17.0,0.0,0.0,1221.0,0.03,-0.09,0.43,-0.01,-0.02,0.32,104.31,78.81,40.0,9.65,-1.34,1.89,1,600
0,338272.0,51.0,9.0,0.0,5.0,1373.0,1.54,0.39,0.3,-0.16,-0.09,1.04,95.75,71.5,64.75,10.84,-2.41,1.62,1,600
0,338487.0,33.0,17.0,0.0,0.0,1525.0,0.6,0.41,0.39,-0.16,-0.03,1.1,83.56,58.69,77.06,8.96,-4.58,1.34,1,600
0,338707.0,39.0,16.0,0.0,0.0,1682.0,0.58,0.31,0.47,-0.13,0.04,0.95,72.06,45.88,81.62,7.62,-6.43,1.46,1,600
0,338922.0,30.0,17.0,0.0,0.0,1959.0,-0.66,0.35,0.19,0.05,0.1,0.67,63.06,36.13,83.06,5.06,-7.54,1.15,1,600
0,339140.0,24.0,11.0,0.0,0.0,2039.0,-0.36,0.18,0.35,0.05,0.0,-0.15,59.75,32.5,82.5,4.91,-8.0,1.43,1,600
0,339361.0,23.0,5.0,0.0,9.0,2023.0,0.23,0.3,0.49,0.08,-0.08,-0.71,63.31,36.56,80.94,6.14,-7.43,1.72,1,600
0,339577.0,37.0,17.0,0.0,0.0,1679.0,-0.43,-0.09,0.5,0.11,-0.02,-0.84,71.44,45.63,78.62,8.82,-6.11,1.38,1,600
0,339797.0,31.0,12.0,6.0,5.0,1533.0,1.99,0.38,0.07,0.16,-0.04,-0.96,81.5,56.38,73.94,10.78,-4.26,1.14,1,600
0,340016.0,39.0,15.0,0.0,1.0,1399.0,-2.15,-0.09,0.42,0.2,0.11,-0.86,90.5,66.06,64.25,6.81,-3.66,2.15,1,600
0,340230.0,31.0,11.0,0.0,1.0,1269.0,-1.46,0.02,0.44,0.05,0.02,-0.66,99.94,74.69,45.38,8.0,-1.74,2.26,1,600
0,340452.0,44.0,16.0,0.0,0.0,1175.0,1.14,0.39,-0.35,-0.15,-0.21,-0.16,106.31,79.56,29.69,10.78,-0.47,1.15,1,600
0,340666.0,30.0,26.0,4.0,6.0,1262.0,1.56,0.46,0.28,-0.13,-0.08,0.83,101.87,76.56,52.38,11.1,-1.33,1.66,1,600
0,340880.0,35.0,11.0,1.0,4.0,1429.0,1.16,0.22,0.36,-0.13,-0.01,1.12,91.37,66.37,71.75,10.11,-3.59,1.58,1,600
0,341098.0,37.0,0.0,1.0,0.0,1573.0,-0.86,0.32,0.21,-0.15,0.02,1.08,79.31,53.5,79.31,7.81,-5.63,1.51,1,600
0,341317.0,29.0,8.0,1.0,0.0,1852.0,-0.77,0.28,0.01,-0.16,0.05,0.93,68.62,41.5,82.94,5.72,-6.99,0.92,1,600
0,341533.0,43.0,3.0,0.0,3.0,1919.0,-0.73,0.12,0.31,-0.11,0.05,0.54,60.88,32.13,84.62,4.44,-8.16,1.07,1,600
0,341752.0,43.0,17.0,0.0,5.0,1876.0,-0.26,0.2,0.03,0.02,-0.02,-0.07,58.88,29.37,84.94,4.55,-8.3,0.78,1,600
0,341969.0,29.0,7.0,0.0,5.0,1827.0,-0.58,0.2,0.39,0.06,-0.1,-0.43,60.94,32.56,84.62,4.69,-8.02,1.16,1,600
0,342187.0,40.0,34.0,0.0,0.0,1690.0,0.29,0.33,0.27,0.1,-0.06,-0.88,67.81,40.38,83.56,7.33,-7.09,0.92,1,600
0,342405.0,33.0,10.0,2.0,7.0,1557.0,-0.26,0.4,0.4,0.15,0.04,-0.96,77.62,51.13,80.56,7.37,-5.66,1.4,1,600
0,342619.0,30.0,50.0,0.0,3.0,1390.0,0.51,0.44,0.05,0.17,0.01,-1.23,89.5,63.88,74.06,9.31,-3.7,1.24,1,600
0,342835.0,30.0,2.0,4.0,0.0,1257.0,0.08,0.19,0.02,0.15,0.08,-0.77,100.31,74.75,55.75,9.54,-1.93,1.47,1,600
0,343055.0,29.0,2.0,0.0,2.0,1339.0,-0.64,-0.31,0.01,-0.01,0.13,-0.08,106.81,79.25,32.81,8.98,-1.3,1.55,1,600
0,343271.0,35.0,21.0,0.0,0.0,1271.0,1.49,0.16,0.3,0.02,0.03,0.36,105.19,77.06,33.63,10.28,-1.22,1.81,1,600
0,343487.0,25.0,4.0,2.0,5.0,1520.0,0.26,0.08,0.37,-0.03,-0.09,1.1,95.81,70.75,57.75,9.52,-2.63,2.09,1,600
0,343706.0,35.0,9.0,0.0,9.0,1571.0,0.21,0.57,0.16,-0.07,0.04,1.28,80.94,56.94,72.31,8.43,-4.51,1.78,1,600
0,343922.0,38.0,27.0,0.0,0.0,1727.0,-0.48,0.47,0.14,-0.09,0.11,1.16,67.37,42.81,76.94,5.99,-6.72,1.94,1,600
0,344138.0,24.0,6.0,0.0,0.0,1987.0,-0.69,0.0,0.09,-0.06,0.08,0.32,60.19,33.56,78.5,4.73,-7.99,1.71,1,600
0,344356.0,24.0,9.0,0.0,0.0,2075.0,-0.57,0.26,0.05,0.01,-0.01,-0.0,57.69,30.94,78.56,4.45,-7.98,1.71,1,600
0,344573.0,40.0,9.0,0.0,5.0,1903.0,-1.05,0.39,0.28,0.05,-0.05,-0.54,61.13,35.19,78.0,5.55,-7.44,1.92,1,600
0,344789.0,33.0,13.0,0.0,2.0,1624.0,-0.46,0.67,-0.15,0.1,-0.03,-1.49,73.25,47.88,74.62,6.8,-5.67,1.58,1,600
0,345009.0,29.0,18.0,4.0,10.0,1461.0,2.64,0.85,-0.36,0.34,0.07,-1.41,89.0,63.56,59.88,11.43,-2.91,1.82,1,600
0,345224.0,30.0,19.0,9.0,0.0,1317.0,0.0,0.06,0.21,0.1,-0.03,-0.59,97.62,71.06,37.5,11.46,-1.22,2.79,1,600
0,345440.0,36.0,19.0,0.0,0.0,1231.0,-0.45,0.13,0.0,-0.15,-0.19,-0.17,103.0,74.94,25.06,9.27,-0.85,2.83,1,600
0,345658.0,31.0,340.0,0.0,2.0,1243.0,1.16,0.2,0.02,-0.11,-0.08,0.67,102.25,76.06,38.38,10.68,-1.26,1.87,1,600
0,345873.0,27.0,1033.0,0.0,0.0,1535.0,0.16,0.19,0.07,-0.02,-0.01,0.9,92.87,68.62,59.81,9.3,-2.88,1.86,1,600
0,346088.0,38.0,1519.0,1.0,3.0,1509.0,-0.23,0.27,-0.07,-0.05,0.02,0.96,81.44,57.88,69.62,8.07,-4.6,1.73,1,600
0,346308.0,31.0,634.0,1.0,2.0,1644.0,-0.14,0.02,0.34,-0.07,0.11,0.91,71.19,47.25,73.75,7.05,-6.36,2.19,1,600
0,346525.0,31.0,19.0,0.0,0.0,1763.0,-0.95,0.09,0.33,-0.19,0.09,0.71,63.75,38.31,76.37,5.79,-7.34,1.88,1,600
0,346742.0,27.0,12.0,2.0,0.0,2026.0,-1.29,0.09,-0.1,-0.15,0.17,0.42,59.0,31.31,78.81,3.98,-8.19,1.77,1,600
0,346967.0,27.0,13.0,0.0,5.0,1867.0,0.21,0.02,-0.2,0.05,-0.07,-0.28,58.13,30.12,79.5,5.16,-8.29,1.33,1,600
0,347183.0,35.0,9.0,0.0,1.0,1741.0,-0.51,0.41,0.4,0.1,-0.06,-0.83,63.38,37.06,78.44,5.69,-7.28,1.93,1,600
0,347402.0,29.0,13.0,1.0,4.0,1589.0,0.15,0.56,0.23,0.17,0.02,-1.38,76.31,50.75,73.69,8.24,-5.47,1.86,1,600
0,347621.0,33.0,17.0,0.0,12.0,1439.0,-0.82,0.06,0.29,0.26,0.12,-0.92,89.37,64.0,60.75,7.98,-3.68,2.39,1,600
0,347835.0,25.0,5.0,0.0,12.0,1531.0,-1.4,0.04,0.72,0.18,0.08,-0.73,97.44,71.62,40.44,7.9,-1.9,3.08,1,600
0,348054.0,31.0,13.0,2.0,0.0,1379.0,-0.12,-0.11,0.84,-0.15,-0.2,-0.25,103.94,75.62,21.56,10.02,-0.65,2.5,1,600
0,348274.0,25.0,5.0,0.0,3.0,1419.0,0.78,0.08,-0.06,-0.07,-0.08,0.4,104.37,77.0,29.0,10.34,-0.98,1.85,1,600
0,348492.0,47.0,47.0,3.0,0.0,1383.0,-0.19,-0.26,0.06,-0.05,-0.01,1.25,93.94,69.5,58.13,8.98,-3.17,1.87,1,600
0,348713.0,31.0,678.0,0.0,0.0,1734.0,-0.09,0.14,0.71,-0.02,-0.0,1.19,78.69,55.44,70.94,7.97,-5.11,2.52,1,600
0,348928.0,35.0,1695.0,0.0,1.0,1687.0,-0.94,0.19,0.52,-0.06,0.07,0.89,67.25,43.69,75.06,6.35,-6.87,2.41,1,600
0,349145.0,27.0,7.0,1.0,2.0,1797.0,-1.04,0.28,0.35,-0.22,0.1,0.46,59.63,34.56,77.87,4.47,-7.63,2.03,1,600
0,349369.0,25.0,9.0,0.0,10.0,2056.0,0.26,-0.03,-0.42,-0.1,0.05,-0.26,60.81,33.0,79.19,5.63,-8.09,1.11,1,600
0,349587.0,31.0,17.0,6.0,3.0,1785.0,-0.62,0.32,0.32,0.15,-0.12,-0.81,66.25,38.88,77.12,5.58,-7.06,2.02,1,600
0,349808.0,30.0,25.0,7.0,9.0,1685.0,-1.16,0.06,0.07,0.12,0.02,-0.81,74.0,47.75,74.37,6.14,-6.22,1.85,1,600
0,350026.0,31.0,13.0,11.0,50.0,1563.0,0.75,0.34,0.37,0.16,0.05,-1.03,85.56,59.69,66.62,9.21,-4.19,2.33,1,600
0,350249.0,37.0,13.0,9.0,0.0,1389.0,-1.17,-0.23,-0.04,0.15,-0.04,-0.72,95.12,69.06,53.13,8.01,-2.96,2.05,1,600
0,350466.0,28.0,13.0,0.0,1.0,1269.0,1.9,0.53,0.1,-0.01,-0.16,-0.48,102.12,75.31,34.44,11.39,-0.87,2.15,1,600
0,350681.0,27.0,2719.0,1.0,1.0,1197.0,-0.05,0.25,0.01,-0.22,-0.31,0.35,102.87,77.06,44.56,9.5,-1.31,1.54,1,600
0,350898.0,33.0,1912.0,1.0,2.0,1322.0,1.69,0.01,0.14,-0.05,0.03,0.67,96.81,71.62,62.31,10.12,-2.54,1.42,1,600
0,351116.0,21.0,1577.0,0.0,5.0,1699.0,0.73,-0.14,0.33,-0.06,0.05,1.1,86.31,61.06,72.06,9.31,-4.65,1.79,1,600
0,351329.0,35.0,3107.0,0.0,1.0,1599.0,-0.4,0.59,0.2,-0.12,0.03,0.95,75.44,49.56,77.12,7.67,-5.8,1.54,1,600
0,351543.0,39.0,1832.0,1.0,1.0,1725.0,-0.69,0.28,0.12,-0.19,0.04,0.75,66.44,38.88,80.62,5.47,-7.24,1.36,1,600
0,351760.0,27.0,8.0,0.0,0.0,1983.0,-0.83,0.12,0.25,-0.1,-0.03,0.4,60.81,32.25,82.75,4.37,-8.12,1.28,1,600
0,351980.0,22.0,5.0,1.0,0.0,2061.0,-0.13,0.0,0.22,0.09,-0.02,-0.2,59.63,31.0,82.69,5.08,-8.2,1.3,1,600
0,352197.0,37.0,10.0,2.0,0.0,1763.0,-0.24,-0.07,-0.57,0.07,-0.05,-0.72,63.75,36.19,81.12,3.81,-7.71,1.11,1,600
0,352421.0,41.0,17.0,1.0,3.0,1660.0,-0.77,0.36,0.69,0.18,0.06,-1.11,74.62,47.69,77.12,7.48,-6.01,1.94,1,600
0,352639.0,31.0,11.0,0.0,6.0,1529.0,0.41,0.54,-0.04,0.25,0.08,-1.11,87.94,61.31,67.25,9.06,-3.69,1.78,1,600
0,352862.0,35.0,17.0,0.0,0.0,1371.0,0.56,0.69,0.14,0.11,0.01,-0.96,98.44,71.56,50.38,9.88,-1.6,2.11,1,600
0,353077.0,30.0,13.0,1.0,2.0,1245.0,0.28,-0.08,0.45,-0.11,-0.2,-0.48,106.0,77.5,28.87,9.86,-1.11,2.31,1,600
0,353296.0,38.0,11.0,0.0,0.0,1203.0,0.43,-0.07,0.01,-0.02,-0.07,0.15,109.06,80.62,26.06,10.1,-0.77,1.44,1,600
0,353516.0,27.0,19.0,0.0,0.0,1461.0,0.36,-0.09,0.02,-0.03,-0.1,0.8,103.06,76.69,51.0,9.9,-1.84,1.44,1,600
0,353731.0,36.0,21.0,1.0,0.0,1471.0,0.23,0.12,0.16,-0.05,-0.01,1.12,91.37,66.25,69.5,8.32,-3.41,1.6,1,600
0,353946.0,30.0,7.0,0.0,0.0,1612.0,-0.28,0.18,0.26,-0.06,-0.01,1.12,78.06,53.13,77.19,7.56,-5.55,1.56,1,600
0,354163.0,36.0,19.0,0.0,2.0,1748.0,-0.72,0.26,0.74,-0.17,0.04,0.95,66.37,40.94,81.12,5.63,-7.11,1.87,1,600
0,354381.0,24.0,9.0,0.0,0.0,2007.0,-0.64,0.18,-0.16,-0.2,0.16,0.41,60.13,32.5,84.37,4.62,-8.04,0.64,1,600
0,354599.0,36.0,19.0,0.0,0.0,1900.0,-0.82,0.1,0.32,0.17,0.05,-0.25,61.06,32.5,83.56,5.79,-8.05,1.12,1,600
0,354822.0,33.0,18.0,0.0,2.0,1755.0,0.52,0.27,0.47,0.24,-0.02,-0.89,67.62,40.44,79.5,6.36,-6.96,1.55,1,600
0,355043.0,34.0,18.0,0.0,1.0,1615.0,-0.75,0.1,0.28,0.22,-0.04,-1.08,78.75,52.88,74.12,7.12,-5.5,1.9,1,600
0,355268.0,40.0,18.0,5.0,0.0,1460.0,-0.28,-0.1,0.59,0.25,-0.05,-0.85,89.69,65.56,64.5,8.64,-3.76,2.33,1,600
0,355488.0,35.0,23.0,0.0,10.0,1320.0,-0.2,-0.26,0.67,0.22,-0.0,-0.79,97.75,74.37,49.31,9.24,-2.25,2.39,1,600
0,355708.0,35.0,18.0,1.0,0.0,1150.0,0.5,0.1,-0.11,-0.08,-0.25,-0.18,103.87,80.06,31.0,10.16,-0.76,1.33,1,600
0,355931.0,29.0,17.0,1.0,0.0,1251.0,0.03,-0.21,0.34,-0.04,-0.01,1.02,99.75,77.81,55.81,9.62,-1.92,1.5,1,600
0,356146.0,29.0,3054.0,0.0,1.0,1397.0,0.29,0.47,0.09,-0.09,0.03,1.18,86.94,65.56,73.25,9.17,-3.51,1.26,1,600
0,356367.0,45.0,3094.0,0.0,0.0,1559.0,0.48,0.49,0.26,-0.16,0.05,0.91,74.94,52.44,78.62,8.2,-5.43,1.44,1,600
0,356581.0,38.0,2380.0,0.0,1.0,1683.0,-0.53,0.06,0.65,-0.33,0.02,0.93,65.56,41.13,82.81,5.92,-7.25,1.58,1,600
0,356796.0,31.0,25.0,1.0,0.0,1790.0,-1.23,0.14,0.34,-0.22,0.14,0.71,59.5,31.75,86.37,3.87,-8.21,0.85,1,600
0,357013.0,45.0,18.0,0.0,2.0,1958.0,-0.75,-0.11,0.05,-0.07,0.04,0.17,55.19,25.81,88.12,3.18,-8.74,0.2,1,600
0,357231.0,34.0,9.0,2.0,0.0,1835.0,-1.22,-0.02,0.73,0.1,-0.14,-0.49,56.38,28.0,87.69,3.39,-8.66,1.08,1,600
0,357450.0,36.0,11.0,2.0,0.0,1737.0,-0.77,0.25,0.56,0.12,0.05,-1.02,64.0,36.44,86.06,5.05,-7.61,1.1,1,600
0,357672.0,43.0,18.0,0.0,2.0,1574.0,-0.71,0.11,0.16,0.18,0.11,-1.39,78.87,51.38,81.69,6.94,-5.93,1.04,1,600
0,357888.0,29.0,13.0,1.0,0.0,1439.0,0.94,0.28,0.24,0.28,0.24,-0.86,91.31,64.25,68.81,9.81,-3.6,1.81,1,600
0,358109.0,28.0,17.0,1.0,0.0,1322.0,0.24,0.12,-0.18,0.08,0.13,-0.8,101.62,72.94,46.19,9.61,-1.95,1.8,1,600
0,358329.0,38.0,12.0,1.0,1.0,1200.0,1.04,0.04,0.32,-0.07,-0.15,-0.48,109.06,76.87,21.62,10.6,-0.73,2.37,1,600
0,358541.0,38.0,19.0,0.0,0.0,1260.0,-0.12,0.02,0.98,0.01,-0.02,0.56,108.12,76.87,27.69,9.42,-1.01,2.95,1,600
0,358763.0,28.0,23.0,0.0,0.0,1415.0,-0.27,0.37,0.25,-0.09,-0.15,1.45,95.12,67.87,62.0,8.76,-3.16,1.85,1,600
0,358981.0,29.0,17.0,3.0,0.0,1572.0,-1.01,0.17,0.78,-0.22,-0.14,1.31,78.56,52.25,77.69,6.74,-5.68,2.06,1,600
0,359199.0,37.0,25.0,0.0,0.0,1700.0,-1.18,-0.01,0.25,-0.31,0.01,0.73,67.62,39.94,83.81,5.05,-7.52,1.03,1,600
0,359419.0,28.0,0.0,0.0,0.0,1945.0,-0.21,0.01,0.32,-0.14,0.03,0.19,63.75,34.25,86.87,5.28,-8.09,0.74,1,600
0,359635.0,31.0,8.0,0.0,3.0,2023.0,-0.19,0.03,0.16,0.13,0.07,-0.34,65.62,35.31,85.81,5.47,-7.95,0.74,1,600
0,359852.0,47.0,18.0,3.0,0.0,1785.0,-1.57,-0.13,0.5,0.13,0.08,-0.53,70.19,39.69,82.37,4.69,-7.61,1.49,1,600
0,360070.0,37.0,14.0,0.0,8.0,1676.0,-1.37,0.32,-0.51,0.04,0.08,-0.83,77.19,47.0,79.87,5.85,-6.2,0.67,1,600
0,360289.0,31.0,13.0,10.0,0.0,1519.0,-0.71,0.27,0.07,0.18,0.07,-1.17,89.62,60.25,74.37,7.84,-4.32,1.39,1,600
0,360511.0,33.0,13.0,0.0,0.0,1380.0,-0.51,-0.18,0.59,0.09,0.01,-0.87,99.81,71.06,61.88,8.78,-2.91,2.09,1,600
0,360731.0,31.0,11.0,18.0,0.0,1262.0,0.08,-0.2,0.24,0.07,-0.07,-0.55,108.94,79.19,40.88,9.73,-1.34,1.61,1,600
0,360946.0,28.0,1.0,1.0,2.0,1180.0,-0.08,-0.04,0.39,-0.02,-0.1,0.1,112.25,82.44,29.94,10.25,-0.76,1.01,1,600
0,361166.0,35.0,21.0,0.0,1.0,1311.0,0.4,-0.04,0.37,0.02,-0.06,1.07,103.25,75.81,63.69,9.89,-2.28,1.42,1,600
0,361386.0,31.0,19.0,0.0,0.0,1465.0,-0.34,-0.28,0.54,-0.04,-0.02,1.06,90.5,63.94,76.62,8.46,-4.47,1.53,1,600
0,361602.0,27.0,7.0,3.0,2.0,1590.0,0.33,0.29,0.2,-0.06,0.03,0.98,79.25,52.31,81.19,8.03,-5.69,1.12,1,600
0,361822.0,36.0,19.0,0.0,0.0,1723.0,0.58,0.23,0.12,-0.11,-0.08,0.82,68.37,41.13,83.81,6.98,-7.15,0.9,1,600
0,362042.0,31.0,9.0,0.0,5.0,1990.0,0.3,0.39,0.45,-0.14,0.07,0.58,60.13,31.94,86.0,5.45,-7.93,1.02,1,600
0,362259.0,27.0,1.0,0.0,5.0,2071.0,-0.27,0.0,0.12,0.08,0.0,-0.22,58.69,29.56,86.25,4.58,-8.5,0.68,1,600
0,362477.0,25.0,1.0,0.0,15.0,1979.0,-2.06,0.17,0.14,0.15,-0.02,-0.93,65.31,37.81,84.69,3.95,-7.53,0.85,1,600
0,362690.0,36.0,17.0,0.0,0.0,1622.0,-0.4,0.24,0.82,0.17,0.0,-1.03,76.56,50.75,81.62,7.32,-6.02,1.57,1,600
0,362905.0,35.0,19.0,0.0,3.0,1485.0,-0.36,-0.02,0.52,0.2,0.08,-0.98,87.69,62.63,74.12,8.34,-4.36,1.75,1,600
0,363123.0,35.0,18.0,0.0,5.0,1335.0,-0.07,0.13,0.64,0.16,-0.06,-0.87,96.75,72.62,60.06,9.3,-2.32,2.1,1,600
0,363338.0,31.0,5.0,0.0,5.0,1231.0,0.95,0.48,0.23,-0.06,-0.09,-0.57,104.94,79.56,39.38,10.6,-0.64,1.6,1,600
0,363553.0,29.0,5.0,1.0,0.0,1337.0,0.42,-0.1,0.7,0.05,0.19,0.26,108.5,82.12,33.5,10.13,-0.86,1.83,1,600
0,363768.0,41.0,19.0,1.0,0.0,1305.0,0.44,0.03,0.13,-0.12,-0.11,1.11,102.69,77.25,60.13,9.16,-2.1,1.29,1,600
0,363985.0,28.0,7.0,0.0,0.0,1480.0,-0.41,0.07,0.38,-0.09,-0.02,1.32,88.69,63.25,78.62,8.34,-4.25,1.25,1,600
0,364203.0,23.0,7.0,0.0,0.0,1634.0,0.22,0.39,0.48,-0.03,0.02,1.29,73.69,48.25,83.12,7.47,-6.17,1.26,1,600
0,364422.0,45.0,10.0,1.0,1.0,1759.0,-0.59,0.35,0.44,-0.2,0.05,0.78,62.44,35.31,84.69,5.01,-7.65,1.16,1,600
0,364638.0,25.0,7.0,0.0,0.0,2013.0,-1.61,-0.18,0.12,0.04,0.11,-0.17,59.56,31.69,85.87,3.53,-8.51,0.71,1,600
0,364854.0,21.0,6.0,0.0,133.0,2020.0,-0.77,0.1,0.56,0.18,0.07,-0.69,66.06,37.94,83.0,5.3,-7.52,1.52,1,600
0,365070.0,31.0,19.0,5.0,0.0,1704.0,0.84,0.35,0.19,0.21,0.1,-0.97,75.44,48.13,78.62,6.16,-6.04,1.5,1,600
0,365288.0,35.0,17.0,3.0,58.0,1567.0,0.15,0.0,0.26,0.22,0.11,-1.11,87.31,60.0,68.19,8.65,-4.54,2.08,1,600
0,365502.0,23.0,6.0,0.0,5.0,1647.0,-0.16,0.23,0.6,0.19,0.15,-0.65,97.62,69.37,48.81,9.62,-2.4,2.93,1,600
0,365719.0,25.0,9.0,3.0,0.0,1526.0,-0.46,0.01,0.57,0.04,-0.08,-0.52,103.87,74.37,31.5,8.97,-1.36,2.82,1,600
0,365938.0,21.0,9.0,0.0,5.0,1404.0,0.3,0.04,0.55,-0.1,-0.35,-0.19,107.25,77.69,25.25,9.88,-0.84,2.43,1,600
0,366158.0,43.0,24.0,0.0,2.0,1251.0,-0.9,-0.18,0.27,-0.07,-0.05,0.9,103.56,76.69,52.19,8.63,-1.95,1.65,1,600
0,366375.0,36.0,36.0,0.0,1.0,1631.0,0.84,0.05,0.14,-0.08,-0.11,1.18,92.06,66.37,71.87,9.79,-3.77,1.34,1,600
0,366593.0,29.0,1180.0,0.0,1.0,1757.0,-0.26,-0.06,0.56,-0.09,-0.06,1.05,78.06,52.44,79.87,8.63,-5.74,1.39,1,600
0,366810.0,24.0,531.0,4.0,3.0,1672.0,-0.88,0.09,0.48,-0.1,0.02,0.76,67.75,41.44,82.87,5.61,-7.19,1.39,1,600
0,367030.0,28.0,18.0,1.0,0.0,1785.0,-0.36,0.25,0.41,-0.16,0.08,0.58,61.31,33.38,84.12,5.03,-7.88,1.25,1,600
0,367246.0,22.0,5.0,0.0,0.0,2037.0,-0.19,0.19,0.5,-0.0,0.24,-0.01,61.0,30.25,84.25,4.75,-8.23,1.35,1,600
0,367464.0,31.0,13.0,0.0,17.0,1837.0,-1.27,0.14,0.76,0.15,0.02,-0.29,64.12,32.69,82.0,4.05,-8.0,1.92,1,600
0,367685.0,29.0,13.0,0.0,3.0,1738.0,-0.73,0.11,0.53,0.05,0.0,-0.76,69.94,39.69,80.87,5.89,-7.32,1.96,1,600
0,367902.0,36.0,5.0,0.0,0.0,1583.0,-0.34,-0.11,0.16,0.13,-0.02,-1.13,81.75,52.13,78.06,7.39,-5.72,1.94,1,600
0,368122.0,31.0,17.0,5.0,0.0,1437.0,0.71,0.26,0.14,0.28,0.06,-0.99,93.75,65.06,67.87,8.93,-3.74,1.27,1,600
0,368340.0,35.0,18.0,1.0,7.0,1303.0,0.6,0.11,0.86,0.2,-0.01,-0.85,102.81,74.62,45.75,10.05,-1.74,2.67,1,600
0,368553.0,22.0,14.0,1.0,0.0,1381.0,1.37,0.08,0.38,-0.21,-0.21,-0.03,108.75,78.94,29.31,9.51,-1.16,2.06,1,600
0,368771.0,23.0,391.0,0.0,5.0,1298.0,1.06,0.1,0.36,-0.2,-0.13,0.95,103.0,74.44,63.25,10.51,-2.23,1.54,1,600
0,368989.0,27.0,1179.0,0.0,0.0,1431.0,0.42,0.29,0.26,-0.02,0.03,0.81,93.62,64.75,75.0,9.26,-3.8,1.34,1,600
0,369204.0,24.0,855.0,0.0,0.0,1564.0,0.19,0.23,0.06,0.02,0.03,0.81,83.75,54.88,78.0,7.66,-5.41,1.37,1,600
0,369425.0,26.0,0.0,0.0,1.0,1692.0,0.44,0.35,0.33,-0.06,0.03,0.72,74.19,45.0,79.56,6.37,-6.55,1.54,1,600
0,369642.0,25.0,23.0,0.0,3.0,1806.0,-0.62,0.11,0.17,-0.1,0.06,0.62,66.94,36.69,81.19,5.24,-7.65,1.37,1,600
0,369859.0,25.0,7.0,1.0,2.0,2036.0,-0.68,0.32,0.08,-0.03,0.1,0.29,62.88,31.37,81.75,4.39,-7.96,1.28,1,600
0,370079.0,36.0,17.0,0.0,2.0,1836.0,-1.03,0.02,0.34,0.01,-0.03,-0.31,63.19,32.13,82.19,4.21,-8.18,1.46,1,600
0,370296.0,27.0,9.0,0.0,1.0,1886.0,-0.22,0.15,0.43,0.06,-0.05,-1.08,70.69,40.06,81.25,6.08,-7.26,1.57,1,600
0,370514.0,17.0,11.0,0.0,0.0,1712.0,0.12,-0.16,0.03,0.07,0.1,-1.41,86.25,56.13,76.87,9.43,-5.09,1.42,1,600
0,370735.0,38.0,13.0,3.0,0.0,1403.0,-0.49,0.09,0.27,0.32,0.15,-0.86,98.75,68.87,62.75,8.65,-3.03,1.88,1,600
0,370953.0,26.0,8.0,6.0,0.0,1491.0,-0.34,0.01,0.55,0.03,-0.1,-0.63,106.19,76.44,42.5,9.18,-1.53,2.24,1,600
0,371173.0,25.0,3.0,1.0,0.0,1353.0,1.27,0.34,-0.7,-0.07,-0.19,-0.14,111.75,82.25,29.12,10.99,-0.29,0.44,1,600
0,371390.0,13.0,13.0,0.0,1.0,1259.0,1.77,0.31,0.44,-0.17,-0.42,0.91,106.69,79.81,65.69,11.41,-1.35,1.11,1,600
0,371606.0,20.0,12.0,0.0,3.0,1532.0,-0.23,-0.17,0.05,-0.05,-0.28,0.96,94.19,67.75,89.0,8.81,-3.96,0.08,1,600
0,371828.0,23.0,5.0,0.0,0.0,1677.0,-0.39,-0.21,-0.06,-0.02,-0.17,0.93,81.87,55.94,93.81,7.56,-5.74,-0.12,1,600
0,372046.0,29.0,0.0,2.0,0.0,1806.0,-0.18,0.12,0.38,-0.02,-0.09,0.91,68.87,44.0,94.25,6.62,-6.9,-0.14,1,600
0,372262.0,26.0,11.0,0.0,0.0,1900.0,-0.19,-0.17,0.16,-0.07,-0.01,0.54,60.0,35.75,94.87,5.49,-8.13,-0.51,1,600
0,372480.0,26.0,0.0,0.0,6.0,1981.0,-0.25,0.17,0.19,0.01,0.08,0.1,56.0,31.0,94.0,4.79,-8.2,-0.38,1,600
0,372695.0,36.0,17.0,2.0,0.0,1771.0,-0.36,0.22,0.31,0.07,0.04,-0.49,58.25,32.81,92.56,4.95,-8.0,-0.05,1,600
0,372914.0,26.0,8.0,5.0,0.0,1877.0,-1.08,0.26,0.26,0.17,0.15,-1.07,67.69,42.31,90.19,5.51,-6.98,0.24,1,600
0,373135.0,25.0,7.0,0.0,21.0,1728.0,-1.54,0.02,0.55,0.11,0.14,-1.1,82.06,56.44,86.12,6.62,-5.37,0.92,1,600
0,373356.0,22.0,6.0,0.0,5.0,1571.0,-0.68,0.06,0.2,0.1,0.04,-1.02,93.94,68.87,79.56,9.13,-3.29,1.13,1,600
0,373576.0,31.0,16.0,0.0,0.0,1224.0,0.37,-0.11,-0.23,0.04,-0.03,-0.64,104.69,79.56,69.0,10.02,-1.77,0.4,1,600
0,373795.0,23.0,9.0,0.0,1.0,1354.0,0.58,-0.02,-0.22,-0.03,0.05,0.25,108.62,83.5,5.81,10.32,-1.02,0.25,1,600
0,374010.0,37.0,13.0,0.0,0.0,1272.0,0.55,0.2,0.13,0.04,0.02,0.82,102.81,78.12,74.37,9.59,-2.02,0.64,1,600
0,374230.0,28.0,12.0,1.0,0.0,1453.0,-0.15,0.38,0.26,-0.06,0.0,1.22,90.06,65.69,82.94,8.28,-3.9,0.67,1,600
0,374450.0,27.0,19.0,1.0,0.0,1581.0,0.7,0.43,0.39,-0.11,-0.01,1.01,77.37,52.31,86.81,8.46,-5.54,0.72,1,600
0,374668.0,35.0,21.0,1.0,0.0,1722.0,0.87,0.35,0.3,-0.05,0.02,0.86,66.69,40.69,88.25,5.42,-7.28,0.09,1,600
0,374890.0,24.0,23.0,3.0,0.0,1830.0,0.83,0.25,0.51,-0.06,0.04,0.71,57.56,31.0,88.62,4.53,-8.24,0.52,1,600
0,375111.0,35.0,18.0,0.0,2.0,1878.0,-0.61,0.09,0.21,-0.01,-0.01,-0.03,52.44,25.31,89.19,3.67,-8.79,0.5,1,600
