class,time,fsr1,fsr2,fsr3,fsr4,angle,accx,accy,accz,gyro1,gyro2,gyro3,orient1,orient2,orient3,acc2x,acc2y,acc2z,participant,serialnumber
0,970880.0,27.0,7.0,3.0,0.0,1913.0,-0.06,-0.11,0.04,0.01,0.01,0.39,249.31,79.25,97.19,9.56,-1.96,-0.17,14,5036
0,971097.0,47.0,17.0,6.0,1.0,1485.0,-0.4,-0.13,0.16,0.05,0.01,0.71,241.06,71.5,93.19,8.86,-3.3,-0.01,14,5036
0,971314.0,36.0,17.0,0.0,8.0,1598.0,0.58,0.09,0.19,0.02,-0.02,0.76,232.06,62.94,92.06,9.31,-4.36,0.03,14,5036
0,971530.0,17.0,11.0,2.0,0.0,2389.0,0.42,0.19,0.07,0.02,0.0,0.96,221.87,52.94,91.75,8.2,-5.77,-0.1,14,5036
0,971747.0,19.0,0.0,0.0,0.0,2553.0,0.03,0.01,0.19,0.06,-0.01,0.8,210.19,41.75,90.94,6.51,-7.34,0.07,14,5036
0,971965.0,18.0,5.0,0.0,0.0,2653.0,-0.49,0.15,0.3,0.11,0.02,0.74,200.25,32.44,89.37,4.76,-8.11,0.39,14,5036
0,972178.0,25.0,9.0,7.0,0.0,2746.0,-0.71,-0.12,0.46,0.01,0.01,-0.2,195.94,28.31,88.31,3.22,-8.64,0.62,14,5036
0,972396.0,31.0,17.0,13.0,0.0,1947.0,-1.05,0.09,0.27,-0.06,-0.05,-0.9,202.87,35.44,88.69,4.64,-7.65,0.46,14,5036
0,972615.0,29.0,18.0,0.0,11.0,1803.0,-0.09,0.12,0.22,-0.07,-0.04,-0.98,215.0,47.06,89.81,7.08,-6.54,0.24,14,5036
0,972828.0,33.0,17.0,379.0,3.0,1659.0,0.96,0.04,0.3,-0.09,-0.02,-0.95,226.56,58.0,91.0,9.32,-5.06,0.2,14,5036
0,973047.0,25.0,13.0,335.0,7.0,1533.0,-0.44,0.14,0.22,-0.05,-0.01,-0.77,237.5,68.44,92.06,8.78,-3.39,0.08,14,5036
0,973267.0,28.0,14.0,269.0,0.0,1432.0,0.19,-0.1,0.05,-0.03,-0.03,-0.56,246.94,77.19,93.56,9.75,-2.26,-0.07,14,5036
0,973485.0,29.0,11.0,0.0,0.0,1315.0,0.18,-0.18,0.23,-0.07,-0.11,-0.32,252.94,82.5,104.56,9.9,-1.42,-0.08,14,5036
0,973703.0,29.0,3.0,0.0,0.0,1855.0,0.39,-0.01,-0.03,-0.04,-0.12,-0.16,255.25,83.81,174.62,10.14,-0.91,-0.55,14,5036
0,973919.0,21.0,9.0,2.0,7.0,1899.0,0.23,-0.03,0.14,0.02,0.05,0.41,253.25,82.19,110.25,9.94,-1.28,-0.31,14,5036
0,974138.0,35.0,18.0,6.0,0.0,1964.0,0.11,-0.04,0.06,0.04,0.04,0.64,247.37,76.62,100.56,10.04,-2.34,-0.38,14,5036
0,974358.0,30.0,8.0,1.0,5.0,2093.0,-0.63,-0.12,0.24,0.08,0.0,0.84,236.81,67.0,94.87,8.39,-3.93,-0.07,14,5036
0,974573.0,38.0,22.0,0.0,3.0,1683.0,-0.44,0.06,0.19,0.08,0.0,0.86,225.87,56.81,92.25,7.48,-5.49,-0.06,14,5036
0,974789.0,21.0,3.0,0.0,11.0,2376.0,1.0,0.26,0.32,0.1,-0.03,0.99,214.0,45.63,90.62,6.94,-6.89,0.15,14,5036
0,975009.0,29.0,29.0,0.0,4.0,1951.0,-0.57,0.3,0.57,0.13,-0.02,0.68,200.56,33.25,88.81,4.8,-7.89,0.74,14,5036
0,975225.0,24.0,7.0,2159.0,479.0,2759.0,-2.38,0.76,0.39,0.14,0.29,-1.89,206.56,38.69,87.5,3.88,-6.76,0.75,14,5036
0,975443.0,21.0,5.0,2451.0,26.0,2115.0,5.58,0.86,0.77,0.08,-0.03,-3.1,242.31,74.0,69.56,15.07,-1.39,1.7,14,5036
0,975661.0,28.0,9.0,1253.0,11.0,1947.0,-0.14,-0.33,0.1,-0.07,-0.07,-0.11,247.19,78.19,77.37,9.45,-2.28,0.54,14,5036
0,975875.0,23.0,9.0,1177.0,18.0,1963.0,-0.3,-0.12,0.2,0.04,-0.01,-0.02,246.94,77.94,79.56,9.33,-2.12,0.54,14,5036
0,976091.0,25.0,8.0,1568.0,4.0,1946.0,0.08,-0.06,0.11,-0.03,-0.02,0.02,247.25,78.5,77.94,9.66,-1.97,0.55,14,5036
0,976311.0,27.0,8.0,1789.0,1.0,1949.0,0.04,-0.07,0.13,0.02,-0.01,-0.0,247.25,78.5,77.81,9.65,-1.98,0.54,14,5036
0,976529.0,23.0,13.0,7.0,4.0,1353.0,-0.02,-0.07,0.24,-0.18,-0.25,-0.32,249.5,80.5,85.62,9.64,-1.68,0.36,14,5036
0,976746.0,27.0,9.0,3.0,0.0,1773.0,0.03,-0.13,0.1,-0.05,-0.13,-0.17,253.12,83.0,99.0,9.76,-1.3,-0.09,14,5036
0,976963.0,33.0,13.0,0.0,0.0,1240.0,0.89,0.14,-0.32,0.0,-0.05,0.04,254.37,83.69,174.12,10.64,-0.85,-0.72,14,5036
0,977181.0,23.0,7.0,0.0,10.0,1835.0,-0.35,-0.12,0.3,0.02,0.04,0.01,252.75,82.56,103.75,9.37,-1.34,0.0,14,5036
0,977400.0,25.0,5.0,1449.0,21.0,1916.0,1.14,-0.26,-0.08,-0.03,0.17,0.01,252.44,82.62,93.25,10.86,-1.51,-0.15,14,5036
0,977620.0,27.0,7.0,1844.0,13.0,2056.0,0.05,-0.05,0.13,-0.02,0.07,0.03,252.81,82.19,81.31,9.76,-1.36,0.33,14,5036
0,977833.0,28.0,10.0,2201.0,21.0,2067.0,0.0,-0.02,0.02,0.06,0.03,0.02,252.25,81.81,77.81,9.71,-1.39,0.32,14,5036
0,978051.0,29.0,10.0,2600.0,24.0,2029.0,0.03,-0.04,0.18,0.03,0.1,0.03,251.44,81.25,71.81,9.73,-1.44,0.64,14,5036
0,978270.0,27.0,9.0,2587.0,13.0,2036.0,0.03,-0.05,0.09,-0.0,0.01,-0.0,251.37,80.94,68.62,9.71,-1.49,0.65,14,5036
0,978487.0,26.0,7.0,2467.0,3.0,2019.0,0.15,0.08,0.04,-0.02,-0.03,-0.01,251.5,81.19,70.56,9.85,-1.32,0.54,14,5036
0,978710.0,26.0,7.0,2741.0,43.0,1999.0,0.0,0.01,0.2,0.0,-0.03,-0.0,251.12,80.87,68.31,9.69,-1.43,0.77,14,5036
0,978927.0,26.0,5.0,2619.0,8.0,2009.0,0.09,-0.05,0.02,0.01,0.01,-0.02,251.12,81.0,69.56,9.78,-1.48,0.55,14,5036
0,979146.0,23.0,5.0,2751.0,24.0,2041.0,-0.21,-0.08,0.24,-0.01,0.07,0.02,251.06,80.44,64.25,9.39,-1.55,0.97,14,5036
0,979364.0,28.0,9.0,2511.0,7.0,2055.0,-0.1,-0.02,0.19,-0.04,-0.02,-0.02,251.56,80.62,64.81,9.56,-1.47,0.86,14,5036
0,979578.0,22.0,13.0,2285.0,19.0,2072.0,0.01,-0.02,0.09,-0.05,-0.02,-0.02,252.31,80.94,66.19,9.7,-1.43,0.71,14,5036
0,979791.0,31.0,19.0,2159.0,10.0,1299.0,0.36,-0.16,-0.24,-0.01,-0.05,0.01,252.69,81.06,66.44,10.05,-1.55,0.35,14,5036
0,980011.0,31.0,16.0,429.0,21.0,1193.0,-0.22,-0.4,0.2,0.0,-0.35,-0.11,253.94,83.0,96.94,9.51,-1.57,0.02,14,5036
0,980227.0,22.0,7.0,3030.0,31.0,1815.0,-0.21,0.33,0.64,0.4,0.21,0.13,250.69,82.62,97.37,9.51,-0.9,0.48,14,5036
0,980443.0,25.0,6.0,3341.0,5.0,1787.0,0.32,-0.16,0.0,0.2,-0.02,0.04,247.25,81.81,95.31,10.03,-1.55,-0.13,14,5036
0,980661.0,25.0,7.0,3221.0,25.0,1799.0,-0.06,-0.08,0.24,0.03,-0.03,-0.04,245.12,81.37,91.0,9.63,-1.54,0.21,14,5036
0,980876.0,29.0,9.0,3493.0,25.0,1788.0,0.29,0.39,0.34,-0.1,0.01,0.04,245.0,81.44,93.75,9.99,-1.05,0.24,14,5036
0,981094.0,25.0,10.0,3261.0,41.0,1803.0,0.19,-0.38,-0.36,0.1,-0.02,-0.01,244.19,81.12,94.87,9.88,-1.88,-0.49,14,5036
0,981313.0,27.0,11.0,3224.0,37.0,1801.0,0.03,0.02,0.27,0.05,-0.02,-0.03,241.94,80.75,94.75,9.71,-1.54,0.14,14,5036
0,981530.0,26.0,12.0,3290.0,39.0,1797.0,0.08,0.28,0.18,0.07,-0.06,-0.01,241.62,80.75,98.0,9.76,-1.26,-0.03,14,5036
0,981745.0,23.0,7.0,3359.0,31.0,1787.0,0.06,-0.41,0.02,0.03,-0.11,-0.02,240.94,80.94,105.75,9.75,-1.89,-0.39,14,5036
0,981965.0,27.0,7.0,3447.0,20.0,1805.0,0.12,0.48,0.19,0.04,-0.01,-0.01,240.25,80.69,110.06,9.8,-0.99,-0.35,14,5036
0,982182.0,26.0,7.0,3491.0,41.0,1807.0,1.52,0.04,0.24,0.03,-0.19,0.02,239.5,80.12,116.87,9.87,-1.36,-0.6,14,5036
0,982406.0,23.0,5.0,3400.0,40.0,1814.0,-0.14,-0.06,0.14,0.0,0.1,0.02,238.69,79.62,115.87,9.5,-1.64,-0.62,14,5036
0,982634.0,27.0,11.0,2172.0,22.0,1805.0,0.54,0.1,0.05,-0.2,0.08,-0.04,240.69,80.75,109.12,10.22,-1.36,-0.45,14,5036
0,982851.0,25.0,5.0,776.0,10.0,1818.0,0.15,0.15,0.56,-0.34,0.26,0.0,243.87,81.56,95.31,10.05,-1.4,0.54,14,5036
0,983070.0,39.0,23.0,6.0,0.0,1204.0,0.26,-0.42,-0.93,0.0,0.22,-0.1,246.56,81.0,77.56,9.94,-1.91,-0.6,14,5036
0,983285.0,23.0,4.0,0.0,5.0,1707.0,0.63,-0.42,-1.16,-0.05,0.17,0.11,247.37,80.81,56.38,10.31,-1.74,-0.28,14,5036
0,983502.0,22.0,1.0,109.0,0.0,1791.0,-0.23,0.11,0.07,-0.0,0.28,0.02,247.12,78.5,46.69,9.23,-1.38,1.51,14,5036
0,983721.0,27.0,4.0,332.0,0.0,1863.0,0.0,-0.19,0.0,0.02,0.12,-0.05,247.5,76.56,39.25,9.53,-1.63,1.76,14,5036
0,983937.0,31.0,11.0,686.0,0.0,1869.0,-0.29,-0.1,0.09,0.04,0.18,0.03,247.5,74.87,33.94,9.16,-1.53,2.22,14,5036
0,984154.0,21.0,8.0,481.0,13.0,1917.0,-0.05,-0.19,-0.05,-0.01,0.06,-0.03,247.69,73.87,31.12,9.36,-1.6,2.27,14,5036
0,984375.0,28.0,11.0,444.0,0.0,1947.0,-0.06,-0.32,0.28,-0.09,-0.08,-0.06,248.31,73.5,28.69,9.16,-1.81,2.78,14,5036
0,984594.0,25.0,11.0,415.0,7.0,1895.0,0.0,-0.01,0.0,-0.0,0.02,0.02,249.44,74.25,29.31,9.43,-1.32,2.31,14,5036
0,984812.0,30.0,13.0,713.0,5.0,1935.0,-0.02,-0.09,0.1,0.07,0.23,0.12,249.31,73.5,27.94,9.3,-1.36,2.57,14,5036
0,985034.0,22.0,14.0,731.0,12.0,1989.0,-0.11,0.1,0.18,-0.0,0.06,0.02,249.25,71.94,25.62,9.2,-1.21,2.92,14,5036
0,985254.0,27.0,8.0,537.0,12.0,1989.0,-0.14,-0.07,0.08,0.0,0.04,-0.02,249.44,71.31,24.5,9.15,-1.37,2.93,14,5036
0,985475.0,27.0,9.0,859.0,3.0,2007.0,-0.16,-0.06,0.11,-0.0,-0.0,-0.01,249.37,71.06,24.44,9.11,-1.38,3.0,14,5036
0,985695.0,25.0,7.0,719.0,1.0,2001.0,-0.08,-0.04,0.07,-0.0,-0.06,-0.0,249.31,71.44,24.94,9.24,-1.35,2.86,14,5036
0,985914.0,29.0,17.0,805.0,20.0,1359.0,-0.16,-0.12,0.15,0.02,0.01,-0.01,249.25,71.56,25.25,9.19,-1.47,2.96,14,5036
0,986134.0,35.0,11.0,2.0,6.0,1294.0,-0.04,-0.24,0.04,-0.05,-0.19,-0.12,250.44,73.19,24.75,9.34,-1.43,2.62,14,5036
0,986349.0,30.0,19.0,0.0,5.0,1267.0,0.24,0.07,-0.02,-0.05,-0.15,-0.17,252.44,75.94,23.0,9.76,-0.84,2.15,14,5036
0,986567.0,27.0,14.0,3.0,2.0,1299.0,-0.12,-0.2,0.03,0.07,0.18,0.18,250.81,74.19,24.75,9.3,-1.33,2.47,14,5036
0,986786.0,23.0,7.0,885.0,3.0,1822.0,-0.04,-0.04,0.09,0.02,0.09,0.08,249.75,72.56,25.19,9.31,-1.29,2.74,14,5036
0,987004.0,25.0,9.0,870.0,0.0,1873.0,-0.14,-0.03,0.0,0.03,0.09,0.01,249.5,71.75,24.62,9.17,-1.31,2.78,14,5036
0,987223.0,26.0,13.0,825.0,0.0,1870.0,0.17,0.0,-0.04,-0.02,-0.04,-0.02,249.44,71.62,24.31,9.48,-1.27,2.76,14,5036
0,987444.0,23.0,8.0,735.0,6.0,1850.0,-0.17,-0.01,0.03,0.05,0.18,0.04,249.5,70.75,22.81,9.08,-1.26,3.0,14,5036
0,987662.0,22.0,7.0,781.0,9.0,1907.0,-0.09,-0.02,0.12,0.02,0.05,-0.01,249.25,69.69,21.31,9.09,-1.25,3.29,14,5036
0,987880.0,21.0,8.0,573.0,5.0,1903.0,-0.04,-0.01,0.02,-0.0,-0.02,-0.0,249.19,69.5,21.0,9.15,-1.25,3.23,14,5036
0,988098.0,26.0,7.0,293.0,0.0,1854.0,-0.02,-0.11,0.11,-0.0,-0.08,-0.03,249.31,70.0,21.12,9.24,-1.22,3.16,14,5036
0,988317.0,35.0,10.0,765.0,0.0,1925.0,-0.04,0.1,0.1,0.0,-0.03,-0.03,248.87,69.87,21.56,9.16,-1.13,3.23,14,5036
0,988538.0,24.0,12.0,810.0,0.0,1883.0,-0.19,0.04,0.19,0.02,0.04,0.04,248.94,70.0,20.81,9.01,-1.14,3.32,14,5036
0,988757.0,39.0,13.0,1817.0,25.0,1432.0,-0.18,-0.39,0.0,-0.01,0.01,-0.03,248.37,68.5,21.87,8.94,-1.73,3.33,14,5036
0,988976.0,31.0,12.0,1593.0,21.0,1421.0,-0.17,-0.05,0.13,0.01,0.01,-0.0,248.5,68.44,21.19,8.94,-1.35,3.48,14,5036
0,989193.0,31.0,13.0,0.0,13.0,1343.0,0.0,0.01,-0.01,-0.1,-0.2,-0.18,250.19,69.62,19.12,9.2,-1.09,3.19,14,5036
0,989410.0,29.0,14.0,0.0,9.0,1285.0,-0.29,-0.18,0.13,-0.04,-0.13,-0.06,252.0,72.31,17.62,8.88,-1.05,3.2,14,5036
0,989628.0,31.0,19.0,7.0,8.0,1263.0,0.45,0.01,-0.27,0.03,0.05,0.08,253.0,73.5,16.87,9.85,-0.79,2.38,14,5036
0,989844.0,25.0,7.0,524.0,23.0,1811.0,-0.66,-0.09,0.41,0.03,0.06,0.04,251.12,71.25,19.25,9.21,-1.06,3.1,14,5036
0,990064.0,27.0,9.0,1387.0,0.0,1908.0,-0.24,-0.05,0.14,0.01,0.05,0.03,250.06,69.87,20.44,8.96,-1.23,3.31,14,5036
0,990282.0,25.0,9.0,1341.0,17.0,1913.0,-0.04,-0.02,0.06,0.0,-0.0,-0.0,250.0,69.75,20.5,9.18,-1.21,3.25,14,5036
0,990498.0,23.0,10.0,1240.0,10.0,1938.0,-0.03,0.02,0.07,0.0,0.01,-0.0,250.0,69.69,20.44,9.16,-1.15,3.25,14,5036
0,990716.0,25.0,7.0,1111.0,8.0,2038.0,-0.04,-0.01,0.06,0.0,-0.02,-0.01,250.06,69.75,20.37,9.16,-1.19,3.23,14,5036
0,990934.0,25.0,11.0,1037.0,0.0,2063.0,-0.07,0.02,0.11,0.01,0.02,0.01,249.94,69.75,20.56,9.09,-1.17,3.28,14,5036
0,991155.0,28.0,14.0,1295.0,0.0,2025.0,-0.02,-0.01,0.04,-0.0,-0.03,-0.01,250.0,69.81,20.56,9.18,-1.2,3.2,14,5036
0,991379.0,23.0,7.0,1047.0,9.0,2055.0,-0.02,0.01,0.08,-0.0,-0.01,-0.01,250.0,70.06,20.75,9.19,-1.17,3.2,14,5036
0,991594.0,26.0,7.0,1098.0,31.0,2065.0,-0.04,-0.01,0.1,-0.0,-0.02,0.0,250.0,70.25,20.94,9.18,-1.2,3.16,14,5036
0,991814.0,25.0,9.0,1204.0,21.0,2058.0,-0.09,-0.16,0.13,-0.05,-0.14,0.01,250.0,70.56,21.37,9.16,-1.35,3.15,14,5036
0,992032.0,27.0,9.0,383.0,5.0,2060.0,0.22,-0.04,0.43,-0.07,-0.04,0.05,249.87,71.0,23.12,9.5,-1.29,3.36,14,5036
0,992247.0,34.0,19.0,699.0,15.0,1391.0,-0.2,-0.15,-0.05,0.11,0.01,-0.03,249.75,71.31,26.44,9.34,-1.55,2.75,14,5036
0,992463.0,29.0,13.0,6.0,0.0,1804.0,0.13,0.07,-0.17,-0.07,-0.06,-0.1,251.44,72.69,22.37,9.47,-1.03,2.64,14,5036
0,992688.0,29.0,10.0,0.0,8.0,1231.0,0.35,0.11,-0.21,-0.06,-0.09,-0.1,253.62,75.56,21.37,9.17,-0.96,2.58,14,5036
0,992902.0,27.0,7.0,306.0,17.0,1869.0,-0.02,-0.1,0.18,0.05,0.06,0.13,252.06,74.06,23.69,9.41,-1.18,2.64,14,5036
0,993117.0,43.0,13.0,1171.0,3.0,1403.0,-0.09,0.0,0.08,0.02,0.09,0.06,251.19,73.56,25.56,9.3,-1.19,2.58,14,5036
0,993336.0,23.0,7.0,861.0,18.0,1980.0,-0.24,-0.12,0.19,0.01,-0.0,-0.01,251.06,73.0,25.06,9.14,-1.3,2.79,14,5036
0,993553.0,23.0,7.0,949.0,21.0,2054.0,-0.07,-0.22,0.12,-0.01,-0.05,0.01,250.87,73.31,26.06,9.32,-1.46,2.65,14,5036
0,993773.0,29.0,9.0,1389.0,6.0,2031.0,-0.1,0.09,0.04,-0.02,-0.24,0.08,250.12,74.31,30.37,9.33,-1.24,2.33,14,5036
0,993995.0,23.0,7.0,2236.0,21.0,2011.0,0.03,0.07,0.07,-0.05,-0.39,0.1,248.69,76.62,43.0,9.57,-1.47,1.73,14,5036
0,994208.0,25.0,12.0,2531.0,41.0,2027.0,-0.08,-0.03,0.07,0.05,-0.03,0.02,247.75,78.06,55.19,9.51,-1.7,1.22,14,5036
0,994429.0,28.0,11.0,2056.0,23.0,2070.0,0.19,-0.11,-0.03,-0.04,0.08,-0.07,247.69,78.12,54.88,9.79,-1.75,1.13,14,5036
0,994646.0,27.0,9.0,809.0,26.0,2082.0,0.1,-0.19,0.36,-0.01,0.31,-0.09,249.25,77.06,42.38,9.66,-1.67,1.98,14,5036
0,994860.0,24.0,8.0,419.0,4.0,2045.0,0.04,-0.09,-0.07,0.0,0.09,-0.03,249.81,76.0,35.94,9.56,-1.48,1.85,14,5036
0,995075.0,26.0,10.0,783.0,0.0,2040.0,0.01,0.05,0.07,0.0,0.08,-0.0,249.87,75.12,33.56,9.49,-1.33,2.16,14,5036
0,995292.0,27.0,11.0,421.0,0.0,2028.0,0.22,0.03,0.0,0.01,0.02,-0.03,250.06,75.25,33.5,9.71,-1.33,2.07,14,5036
0,995507.0,30.0,17.0,474.0,19.0,1339.0,0.19,-0.22,0.14,0.01,0.0,-0.01,250.06,74.44,30.94,8.85,-1.69,2.47,14,5036
0,995727.0,35.0,17.0,9.0,1.0,1259.0,-0.14,0.0,0.1,-0.05,0.02,-0.11,251.87,76.25,28.5,9.38,-1.11,2.14,14,5036
0,995944.0,35.0,19.0,3.0,0.0,1248.0,0.38,0.14,-0.21,0.06,0.1,0.12,252.56,76.81,27.37,9.92,-0.89,1.77,14,5036
0,996158.0,24.0,9.0,471.0,0.0,1849.0,0.25,0.02,-0.04,0.01,-0.0,0.04,251.0,75.56,29.94,9.75,-1.19,2.07,14,5036
0,996377.0,38.0,13.0,749.0,3.0,1372.0,-0.1,-0.25,0.05,0.01,0.07,-0.01,250.5,75.0,30.44,9.36,-1.54,2.23,14,5036
0,996593.0,27.0,7.0,532.0,0.0,1951.0,-0.06,-0.01,0.22,0.02,0.08,0.0,250.5,74.69,29.94,9.54,-1.43,2.44,14,5036
0,996808.0,26.0,9.0,445.0,11.0,1963.0,-0.04,-0.06,0.16,0.01,0.05,-0.03,250.56,74.06,28.25,9.38,-1.33,2.53,14,5036
0,997027.0,29.0,0.0,313.0,0.0,1955.0,-0.07,-0.04,0.07,0.01,0.04,-0.0,250.69,73.87,27.5,9.35,-1.29,2.47,14,5036
0,997243.0,27.0,7.0,854.0,18.0,1983.0,-0.01,-0.04,0.0,-0.0,-0.02,0.0,250.37,73.31,27.12,9.35,-1.31,2.46,14,5036
0,997459.0,25.0,7.0,8.0,0.0,1972.0,-0.02,-0.04,0.07,-0.04,-0.02,0.03,250.37,73.37,27.5,9.37,-1.33,2.55,14,5036
0,997677.0,35.0,9.0,3.0,0.0,1973.0,0.5,-0.09,0.08,0.09,0.07,-0.08,250.56,73.37,28.06,9.89,-1.42,2.55,14,5036
0,997894.0,25.0,6.0,377.0,0.0,1990.0,0.09,-0.05,-0.02,0.01,0.03,0.02,250.44,73.0,26.69,9.22,-1.24,2.71,14,5036
0,998110.0,24.0,5.0,447.0,38.0,2029.0,-0.04,0.06,0.1,0.01,0.03,-0.01,250.44,72.5,25.94,9.3,-1.22,2.74,14,5036
0,998328.0,25.0,0.0,1147.0,9.0,2024.0,-0.02,-0.22,0.07,-0.0,-0.08,0.04,250.06,72.62,27.19,9.33,-1.55,2.67,14,5036
0,998544.0,24.0,7.0,1439.0,29.0,1943.0,0.0,-0.03,0.1,0.03,-0.02,0.02,249.69,73.06,28.37,9.38,-1.47,2.6,14,5036
0,998759.0,29.0,12.0,0.0,0.0,1302.0,-0.33,0.17,0.08,-0.01,-0.07,-0.1,250.12,74.25,27.31,9.1,-1.04,2.44,14,5036
0,998973.0,31.0,16.0,0.0,2.0,1211.0,-0.31,-0.19,0.05,-0.07,-0.15,-0.12,252.5,77.0,25.5,9.97,-0.87,1.87,14,5036
0,999194.0,30.0,12.0,0.0,0.0,1293.0,0.39,0.09,0.08,-0.17,0.03,0.16,253.06,76.06,28.0,9.91,-1.01,2.17,14,5036
0,999409.0,29.0,7.0,269.0,0.0,1882.0,-0.12,-0.25,-0.08,-0.08,-0.13,0.1,253.62,76.87,36.31,9.42,-1.58,1.69,14,5036
0,999625.0,38.0,5.0,1391.0,25.0,1955.0,-0.02,-0.4,0.79,-0.02,-0.14,0.09,252.31,77.19,40.69,9.66,-2.09,2.51,14,5036
0,999844.0,27.0,9.0,2072.0,12.0,1973.0,0.06,0.53,-0.57,0.15,0.03,-0.0,252.19,77.37,53.94,9.63,-1.2,0.68,14,5036
0,1000060.0,29.0,9.0,1840.0,6.0,1959.0,-0.12,-0.24,0.49,-0.09,-0.18,0.01,250.94,78.31,50.63,9.48,-1.77,1.72,14,5036
0,1000276.0,23.0,5.0,2156.0,22.0,1998.0,-0.13,-0.01,0.34,-0.01,0.07,0.05,250.87,78.0,50.69,9.45,-1.59,1.64,14,5036
0,1000496.0,23.0,7.0,2212.0,0.0,1978.0,-0.02,-0.1,0.22,0.01,-0.0,-0.02,250.75,77.37,50.56,9.57,-1.75,1.53,14,5036
0,1000713.0,25.0,11.0,1331.0,0.0,2011.0,0.06,-0.12,0.04,0.0,0.05,-0.08,251.0,77.62,49.31,9.64,-1.71,1.4,14,5036
0,1000927.0,27.0,9.0,123.0,0.0,1991.0,-0.22,-0.39,0.3,0.0,0.23,-0.05,252.5,76.37,36.81,9.3,-1.77,2.16,14,5036
0,1001143.0,24.0,7.0,0.0,5.0,1952.0,-0.05,0.05,0.12,0.03,0.03,-0.03,252.75,75.75,34.31,9.44,-1.3,2.11,14,5036
0,1001359.0,25.0,10.0,7.0,9.0,1978.0,0.0,-0.2,0.02,0.02,0.07,0.01,252.75,75.31,32.88,9.15,-1.39,2.33,14,5036
0,1001577.0,37.0,14.0,0.0,5.0,1396.0,-0.12,-0.14,0.19,0.01,0.04,-0.02,253.0,74.94,31.19,9.28,-1.44,2.34,14,5036
0,1001796.0,27.0,11.0,0.0,1.0,1337.0,-0.08,-0.04,0.12,0.0,0.02,0.01,253.06,74.56,30.31,9.36,-1.35,2.37,14,5036
0,1002010.0,28.0,13.0,0.0,2.0,1267.0,-0.58,-0.31,0.22,-0.03,-0.12,-0.11,254.31,75.56,28.44,9.73,-1.41,2.03,14,5036
0,1002227.0,31.0,8.0,1.0,8.0,1243.0,0.86,0.06,-0.45,0.03,0.08,0.06,255.62,77.87,28.12,9.66,-1.03,1.84,14,5036
0,1002447.0,25.0,7.0,12.0,0.0,1864.0,0.2,-0.28,0.23,0.02,0.15,0.11,253.75,75.19,29.12,9.68,-1.5,2.41,14,5036
0,1002664.0,25.0,9.0,0.0,10.0,1982.0,-0.09,-0.48,0.15,-0.0,0.04,-0.01,253.19,74.31,29.37,9.34,-1.78,2.45,14,5036
0,1002884.0,26.0,11.0,376.0,21.0,1996.0,-0.14,-0.14,0.15,0.01,-0.06,0.03,252.94,73.69,28.75,9.26,-1.46,2.55,14,5036
0,1003101.0,31.0,9.0,528.0,4.0,1991.0,-0.04,0.04,0.1,-0.01,-0.05,0.01,252.62,73.94,30.44,9.44,-1.36,2.41,14,5036
0,1003320.0,24.0,7.0,869.0,21.0,1990.0,0.02,-0.2,0.07,-0.01,-0.07,0.01,252.25,74.5,32.63,9.45,-1.61,2.2,14,5036
0,1003538.0,25.0,6.0,1068.0,13.0,1975.0,-0.01,-0.16,0.08,0.0,-0.03,0.01,252.06,74.94,34.19,9.47,-1.56,2.18,14,5036
0,1003759.0,31.0,9.0,1131.0,0.0,2013.0,-0.03,-0.11,0.11,0.0,0.02,-0.01,252.0,74.81,34.19,9.42,-1.56,2.24,14,5036
0,1003978.0,26.0,13.0,964.0,18.0,2039.0,0.0,-0.02,0.06,0.0,0.04,-0.0,252.06,74.5,33.5,9.46,-1.43,2.25,14,5036
0,1004198.0,24.0,9.0,1175.0,9.0,2055.0,0.0,0.08,0.06,0.01,-0.03,0.01,252.0,74.56,33.81,9.45,-1.36,2.22,14,5036
0,1004410.0,29.0,10.0,1361.0,5.0,2029.0,0.0,-0.04,0.08,0.0,-0.03,-0.0,251.81,75.06,35.5,9.47,-1.51,2.14,14,5036
0,1004625.0,25.0,7.0,1323.0,23.0,1978.0,0.03,0.0,0.06,-0.01,-0.05,0.0,251.75,75.5,36.81,9.53,-1.47,2.02,14,5036
0,1004840.0,24.0,7.0,1423.0,12.0,1946.0,-0.03,-0.22,0.14,0.0,-0.06,-0.0,251.62,76.06,38.94,9.53,-1.7,1.97,14,5036
0,1005059.0,31.0,17.0,0.0,0.0,1299.0,-0.15,-0.07,0.15,-0.05,-0.12,-0.13,252.0,77.0,40.69,9.4,-1.51,1.81,14,5036
0,1005277.0,39.0,9.0,0.0,3.0,1496.0,0.35,0.06,-0.08,-0.06,-0.13,-0.19,254.06,79.0,38.0,9.98,-1.06,1.37,14,5036
0,1005499.0,26.0,11.0,0.0,0.0,1802.0,-0.56,-0.31,0.18,0.04,0.11,0.13,253.44,78.25,37.88,9.03,-1.54,1.76,14,5036
0,1005715.0,24.0,7.0,734.0,0.0,1907.0,-0.17,-0.08,0.13,0.03,0.08,0.09,252.44,76.87,37.25,9.49,-1.4,1.85,14,5036
0,1005931.0,25.0,5.0,775.0,0.0,1933.0,0.01,-0.03,0.06,-0.0,0.0,-0.0,252.31,76.62,37.25,9.55,-1.4,1.86,14,5036
0,1006153.0,26.0,9.0,806.0,0.0,1979.0,0.03,0.0,0.06,-0.0,-0.01,-0.0,252.31,76.62,37.19,9.57,-1.37,1.86,14,5036
0,1006369.0,27.0,8.0,841.0,12.0,1974.0,0.0,0.0,0.09,-0.0,-0.0,-0.0,252.31,76.62,37.19,9.53,-1.36,1.89,14,5036
0,1006587.0,25.0,7.0,840.0,21.0,1989.0,-0.01,-0.01,0.09,0.0,0.0,-0.0,252.31,76.62,37.13,9.52,-1.38,1.9,14,5036
0,1006804.0,27.0,9.0,894.0,0.0,1997.0,0.0,-0.02,0.07,0.0,0.01,0.0,252.31,76.56,37.13,9.54,-1.39,1.88,14,5036
0,1007021.0,23.0,9.0,814.0,9.0,1976.0,0.04,-0.04,0.09,0.0,-0.01,0.0,252.31,76.56,37.13,9.58,-1.41,1.9,14,5036
0,1007244.0,26.0,11.0,873.0,25.0,1963.0,-0.03,-0.01,0.08,0.0,0.0,0.0,252.31,76.56,37.13,9.51,-1.39,1.93,14,5036
0,1007460.0,27.0,18.0,892.0,9.0,1979.0,-0.01,0.0,0.1,0.0,0.01,-0.0,252.31,76.56,37.06,9.52,-1.36,1.91,14,5036
0,1007681.0,26.0,9.0,909.0,27.0,1958.0,0.01,-0.02,0.07,0.0,-0.0,0.0,252.31,76.56,37.06,9.55,-1.39,1.88,14,5036
0,1007900.0,29.0,11.0,927.0,21.0,1946.0,-0.02,-0.01,0.1,0.0,-0.0,0.0,252.31,76.56,37.06,9.51,-1.38,1.91,14,5036
0,1008122.0,27.0,9.0,936.0,5.0,1925.0,-0.02,-0.01,0.13,0.0,0.01,0.0,252.31,76.56,37.06,9.51,-1.38,1.95,14,5036
0,1008343.0,27.0,6.0,0.0,11.0,1674.0,0.38,0.03,-0.11,-0.04,-0.09,-0.1,253.44,77.25,34.5,9.94,-1.19,1.66,14,5036
0,1008563.0,26.0,9.0,0.0,17.0,1647.0,-0.36,-0.06,0.29,0.06,0.12,0.13,254.44,78.25,32.94,9.23,-1.14,1.96,14,5036
0,1008778.0,27.0,10.0,361.0,0.0,1813.0,-0.41,-0.19,0.23,0.0,-0.02,0.06,253.0,76.87,34.94,9.13,-1.47,2.05,14,5036
0,1008998.0,27.0,13.0,750.0,1.0,1898.0,-0.1,-0.01,0.17,0.01,0.04,0.0,252.37,76.31,36.13,9.41,-1.38,2.04,14,5036
0,1009217.0,30.0,9.0,542.0,3.0,1902.0,-0.14,-0.13,0.2,0.01,0.09,0.01,252.37,75.69,34.63,9.36,-1.51,2.19,14,5036
0,1009431.0,23.0,7.0,603.0,0.0,1926.0,-0.15,-0.72,0.06,-0.02,0.01,0.01,252.56,75.12,32.69,9.32,-2.08,2.18,14,5036
0,1009652.0,26.0,9.0,579.0,0.0,1926.0,0.11,-0.42,0.05,-0.02,-0.05,-0.0,252.56,74.81,31.69,9.57,-1.77,2.23,14,5036
0,1009867.0,27.0,5.0,603.0,3.0,1926.0,0.0,0.19,0.06,-0.01,-0.01,-0.0,252.56,74.75,31.31,9.43,-1.3,2.28,14,5036
0,1010086.0,23.0,5.0,822.0,20.0,1928.0,0.02,0.31,-0.09,-0.02,-0.1,-0.0,252.25,74.69,32.0,9.53,-1.18,2.19,14,5036
0,1010308.0,25.0,9.0,711.0,9.0,1912.0,0.03,0.11,0.07,-0.01,-0.06,0.02,252.12,75.06,33.5,9.5,-1.28,2.17,14,5036
0,1010522.0,28.0,9.0,749.0,19.0,1931.0,0.04,-0.13,0.08,-0.03,-0.04,0.03,251.94,75.37,35.75,9.58,-1.55,2.12,14,5036
0,1010737.0,30.0,9.0,1273.0,0.0,1943.0,-0.03,-0.09,0.03,-0.01,-0.16,0.03,251.5,75.94,40.94,9.48,-1.65,1.83,14,5036
0,1010954.0,22.0,5.0,1845.0,21.0,1978.0,0.09,0.09,0.11,-0.01,-0.19,0.06,250.81,77.12,48.69,9.65,-1.55,1.54,14,5036
0,1011173.0,26.0,9.0,2495.0,3.0,1933.0,0.15,-0.09,0.0,0.08,0.0,0.02,249.94,77.75,57.19,9.73,-1.84,1.13,14,5036
0,1011389.0,31.0,17.0,2248.0,7.0,1269.0,0.43,0.04,0.09,-0.02,-0.13,-0.08,249.44,78.12,58.56,9.28,-1.57,1.08,14,5036
0,1011608.0,29.0,13.0,0.0,3.0,1207.0,-0.09,-0.07,-0.04,-0.02,0.02,-0.08,251.81,81.0,70.75,9.58,-1.51,0.45,14,5036
0,1011825.0,27.0,4.0,2.0,1.0,1738.0,-0.59,-0.08,0.25,0.09,0.07,0.26,252.87,81.75,72.31,9.1,-1.43,0.69,14,5036
0,1012045.0,25.0,7.0,7.0,0.0,1869.0,0.05,0.03,0.06,-0.0,0.02,0.0,251.44,80.25,64.75,9.72,-1.45,0.77,14,5036
0,1012263.0,25.0,0.0,0.0,11.0,1837.0,0.09,-0.05,0.1,0.04,0.04,-0.01,251.31,80.06,62.44,9.71,-1.55,0.92,14,5036
0,1012479.0,29.0,11.0,0.0,7.0,1853.0,-0.03,-0.01,0.06,0.02,0.0,-0.03,251.37,80.12,61.44,9.63,-1.48,0.86,14,5036
0,1012697.0,29.0,10.0,3.0,1.0,1900.0,-0.08,0.01,0.28,0.06,0.12,0.0,251.06,79.62,55.75,9.55,-1.43,1.27,14,5036
0,1012912.0,24.0,4.0,0.0,8.0,1880.0,0.1,-0.16,0.09,-0.06,-0.13,0.01,251.06,79.37,53.94,9.74,-1.62,1.16,14,5036
0,1013128.0,23.0,12.0,0.0,0.0,1863.0,-0.23,-0.03,0.08,-0.04,-0.1,0.02,251.25,79.81,60.5,9.41,-1.54,0.93,14,5036
0,1013348.0,19.0,3.0,0.0,0.0,1848.0,0.78,0.09,-0.31,0.02,-0.15,0.06,251.06,80.56,67.12,10.45,-1.38,0.3,14,5036
0,1013566.0,28.0,9.0,6.0,0.0,1873.0,0.0,0.06,0.15,0.02,0.02,0.0,250.69,80.56,68.31,9.66,-1.42,0.75,14,5036
0,1013784.0,27.0,15.0,6.0,7.0,1860.0,0.16,-0.1,0.03,0.04,0.0,0.02,250.56,80.44,67.69,9.84,-1.6,0.64,14,5036
0,1014002.0,31.0,11.0,1036.0,6.0,1839.0,0.25,-0.13,-0.06,0.08,0.02,0.04,249.5,80.19,67.62,9.66,-1.62,0.81,14,5036
0,1014224.0,23.0,2.0,1629.0,20.0,1861.0,-0.12,-0.11,0.02,0.03,-0.03,0.02,248.5,79.75,66.81,9.3,-1.67,0.97,14,5036
0,1014442.0,24.0,9.0,1631.0,26.0,1873.0,0.0,-0.08,0.1,0.01,0.01,0.0,248.31,79.69,67.0,9.64,-1.69,0.78,14,5036
0,1014665.0,37.0,19.0,5.0,0.0,1243.0,-0.41,0.07,0.36,-0.2,-0.49,-0.21,249.12,80.62,70.87,9.25,-1.42,0.88,14,5036
0,1014885.0,19.0,17.0,0.0,10.0,1748.0,-0.62,-0.02,0.18,0.02,0.05,0.02,250.75,81.94,85.75,9.54,-1.43,0.09,14,5036
0,1015107.0,28.0,5.0,0.0,0.0,1818.0,0.24,0.0,0.25,0.04,0.11,0.01,250.56,81.69,83.31,9.94,-1.4,0.43,14,5036
0,1015327.0,29.0,12.0,202.0,0.0,1801.0,-0.02,-0.08,0.06,-0.0,0.08,0.03,250.44,81.25,78.0,9.67,-1.53,0.41,14,5036
0,1015544.0,28.0,9.0,571.0,0.0,1799.0,-0.04,-0.11,0.12,0.01,0.02,0.01,250.25,80.81,74.75,9.68,-1.63,0.53,14,5036
0,1015764.0,26.0,8.0,3.0,5.0,1826.0,-0.03,-0.11,0.1,-0.01,-0.01,-0.02,250.37,80.94,74.94,9.64,-1.6,0.5,14,5036
0,1015984.0,21.0,7.0,0.0,6.0,1830.0,0.1,0.07,0.05,-0.02,0.04,-0.0,250.87,81.12,75.0,9.79,-1.37,0.44,14,5036
0,1016202.0,35.0,13.0,5.0,0.0,1819.0,-0.02,-0.05,0.12,0.0,-0.03,-0.01,251.0,81.12,74.69,9.66,-1.51,0.52,14,5036
0,1016422.0,23.0,11.0,3.0,0.0,1846.0,0.04,-0.03,0.11,-0.0,-0.0,0.0,250.94,81.19,75.75,9.73,-1.48,0.48,14,5036
0,1016643.0,29.0,9.0,16.0,8.0,1863.0,0.07,-0.02,0.1,0.01,-0.02,-0.0,250.94,81.19,75.81,9.76,-1.47,0.46,14,5036
0,1016863.0,30.0,10.0,5.0,3.0,1837.0,0.05,-0.04,0.07,0.02,-0.01,0.01,250.81,81.25,77.0,9.75,-1.49,0.4,14,5036
0,1017083.0,27.0,11.0,0.0,7.0,1833.0,0.01,-0.04,0.12,0.01,0.0,0.01,250.56,81.12,76.81,9.7,-1.5,0.46,14,5036
0,1017300.0,29.0,9.0,71.0,0.0,1864.0,-0.02,-0.05,0.13,0.0,0.01,0.0,250.56,81.12,76.87,9.66,-1.51,0.47,14,5036
0,1017517.0,29.0,17.0,0.0,3.0,1645.0,0.04,-0.03,0.03,-0.01,0.04,0.01,250.75,81.31,77.19,9.74,-1.47,0.35,14,5036
0,1017732.0,29.0,9.0,0.0,8.0,1848.0,0.07,-0.05,0.1,0.01,0.01,-0.0,250.69,81.19,76.56,9.76,-1.5,0.44,14,5036
0,1017949.0,31.0,16.0,0.0,0.0,1175.0,1.62,0.02,-0.03,-0.13,-0.38,-0.15,251.31,81.81,81.31,10.32,-1.32,0.28,14,5036
0,1018168.0,25.0,7.0,0.0,1.0,1837.0,0.1,-0.13,0.08,0.02,0.02,0.03,251.81,82.37,93.25,9.82,-1.43,0.0,14,5036
0,1018381.0,29.0,11.0,9.0,0.0,1885.0,0.12,0.24,0.19,0.02,0.02,0.03,251.44,82.19,91.44,9.84,-1.08,0.16,14,5036
0,1018597.0,37.0,9.0,501.0,1.0,1865.0,-0.15,0.06,0.04,0.08,0.14,0.03,250.31,81.44,80.25,9.53,-1.36,0.29,14,5036
0,1018814.0,29.0,10.0,213.0,0.0,1895.0,0.15,-0.06,0.17,-0.02,0.02,-0.03,250.0,81.0,74.19,9.84,-1.53,0.59,14,5036
0,1019031.0,24.0,5.0,0.0,0.0,1865.0,-0.14,0.19,0.16,-0.05,-0.03,-0.05,250.94,81.25,75.06,9.54,-1.24,0.54,14,5036
0,1019248.0,27.0,5.0,0.0,0.0,1915.0,-0.02,0.01,0.1,-0.02,0.02,0.01,251.44,81.5,75.87,9.67,-1.38,0.45,14,5036
0,1019466.0,21.0,6.0,0.0,7.0,1883.0,-0.01,-0.11,0.07,-0.0,-0.03,-0.03,251.69,81.56,74.94,9.68,-1.5,0.44,14,5036
0,1019684.0,31.0,7.0,0.0,0.0,1912.0,0.16,-0.02,0.06,0.02,-0.01,0.02,250.87,81.06,73.56,9.67,-1.42,0.54,14,5036
0,1019899.0,29.0,9.0,889.0,5.0,1933.0,-0.04,-0.23,0.23,0.02,-0.02,0.01,250.0,80.5,70.69,9.63,-1.75,0.76,14,5036
0,1020115.0,24.0,6.0,856.0,9.0,1895.0,0.36,-0.28,0.07,0.0,-0.04,-0.0,249.69,80.62,72.44,10.04,-1.8,0.54,14,5036
0,1020334.0,25.0,10.0,1019.0,9.0,1891.0,0.0,-0.02,0.07,-0.01,-0.02,-0.0,249.44,80.31,70.25,9.66,-1.57,0.63,14,5036
0,1020551.0,25.0,8.0,596.0,0.0,1903.0,-0.08,0.12,0.06,0.0,-0.04,-0.03,249.5,80.37,70.62,9.58,-1.42,0.6,14,5036
0,1020769.0,20.0,6.0,1326.0,7.0,1907.0,0.04,0.0,0.09,-0.01,0.05,-0.02,250.0,80.94,72.06,9.73,-1.46,0.56,14,5036
0,1020987.0,28.0,14.0,0.0,0.0,1229.0,0.53,0.22,0.05,-0.07,-0.21,-0.12,250.19,80.94,70.44,10.22,-1.2,0.53,14,5036
0,1021203.0,25.0,7.0,0.0,10.0,1862.0,-0.11,-0.04,0.21,0.02,0.0,0.02,251.56,82.31,86.69,9.93,-1.34,0.02,14,5036
0,1021424.0,25.0,11.0,6.0,0.0,1881.0,-0.22,-0.06,0.26,0.05,0.11,0.03,251.12,82.12,84.94,9.48,-1.39,0.38,14,5036
0,1021640.0,25.0,7.0,0.0,17.0,1908.0,0.06,-0.01,0.09,-0.01,0.01,0.0,251.06,82.06,82.25,9.77,-1.35,0.28,14,5036
0,1021859.0,26.0,6.0,0.0,18.0,1898.0,-0.09,-0.02,0.12,-0.01,0.03,0.01,250.94,81.81,79.5,9.61,-1.38,0.37,14,5036
0,1022079.0,25.0,10.0,0.0,9.0,1855.0,0.05,0.0,0.09,-0.01,0.01,0.0,251.0,81.75,77.44,9.75,-1.36,0.4,14,5036
0,1022296.0,27.0,5.0,17.0,0.0,1881.0,0.05,-0.03,0.1,-0.0,-0.01,0.0,251.06,81.75,77.37,9.75,-1.4,0.41,14,5036
0,1022513.0,26.0,10.0,0.0,0.0,1886.0,0.03,-0.04,0.06,0.0,-0.01,0.0,251.0,81.75,77.81,9.74,-1.41,0.36,14,5036
0,1022734.0,25.0,5.0,16.0,0.0,1891.0,0.02,0.0,0.1,0.01,0.01,0.0,251.0,81.75,77.37,9.72,-1.36,0.41,14,5036
0,1022952.0,27.0,9.0,0.0,0.0,1878.0,0.04,-0.06,0.07,-0.01,0.0,0.02,251.06,81.69,77.31,9.74,-1.43,0.38,14,5036
0,1023171.0,21.0,5.0,175.0,5.0,1913.0,0.08,0.02,0.16,0.02,0.01,0.0,250.94,81.62,76.87,9.78,-1.35,0.48,14,5036
0,1023386.0,21.0,7.0,839.0,8.0,1895.0,0.01,-0.09,0.08,0.04,0.04,0.02,250.56,81.44,75.31,9.71,-1.5,0.45,14,5036
0,1023603.0,25.0,9.0,1176.0,20.0,1916.0,0.08,-0.12,0.13,0.04,0.01,0.01,250.0,81.25,74.31,9.77,-1.55,0.53,14,5036
0,1023822.0,27.0,8.0,1293.0,17.0,1939.0,0.0,-0.04,0.12,0.01,0.0,0.01,249.75,81.19,74.0,9.68,-1.48,0.53,14,5036
0,1024038.0,26.0,9.0,1399.0,26.0,1958.0,0.0,-0.09,0.16,0.0,-0.01,-0.0,249.69,81.12,74.37,9.82,-1.5,0.6,14,5036
0,1024259.0,23.0,6.0,0.0,10.0,1753.0,0.5,-0.1,-0.06,-0.11,-0.22,-0.08,251.25,82.5,91.87,10.46,-1.27,-0.3,14,5036
0,1024475.0,25.0,7.0,0.0,10.0,1835.0,0.01,0.0,0.19,0.03,0.02,0.0,251.19,82.44,92.37,9.73,-1.28,0.13,14,5036
0,1024693.0,27.0,6.0,0.0,0.0,1910.0,0.03,-0.09,0.19,-0.0,0.01,0.0,251.12,82.37,90.81,9.75,-1.38,0.17,14,5036
0,1024909.0,21.0,5.0,0.0,0.0,1910.0,0.04,-0.02,0.09,-0.0,0.0,-0.0,251.06,82.37,89.81,9.77,-1.34,0.08,14,5036
0,1025126.0,26.0,5.0,0.0,0.0,1916.0,0.03,-0.03,0.13,0.0,0.01,0.0,251.0,82.31,88.37,9.75,-1.34,0.17,14,5036
0,1025340.0,20.0,5.0,0.0,10.0,1884.0,0.07,-0.07,0.13,0.0,-0.0,0.0,251.0,82.25,87.81,9.77,-1.38,0.17,14,5036
0,1025562.0,29.0,13.0,7.0,0.0,1919.0,0.01,-0.05,0.1,-0.0,0.0,0.0,251.0,82.25,87.5,9.75,-1.38,0.18,14,5036
0,1025782.0,22.0,7.0,0.0,0.0,1909.0,0.02,-0.07,0.14,0.0,0.01,0.0,251.0,82.25,87.5,9.72,-1.37,0.21,14,5036
0,1026000.0,25.0,6.0,0.0,11.0,1909.0,0.02,-0.09,0.15,-0.0,-0.0,-0.0,251.0,82.25,87.5,9.72,-1.38,0.22,14,5036
0,1026221.0,27.0,9.0,7.0,1.0,1893.0,0.01,-0.05,0.13,-0.0,-0.01,-0.0,251.0,82.25,87.75,9.75,-1.39,0.23,14,5036
0,1026441.0,23.0,8.0,0.0,17.0,1891.0,0.01,-0.03,0.19,-0.01,-0.02,-0.0,251.0,82.25,88.5,9.73,-1.44,0.17,14,5036
0,1026660.0,29.0,10.0,0.0,9.0,1908.0,0.01,-0.04,0.15,0.0,-0.02,0.0,250.94,82.25,89.81,9.73,-1.35,0.16,14,5036
0,1026881.0,25.0,10.0,11.0,3.0,1877.0,0.06,-0.01,0.17,0.0,-0.01,-0.0,250.94,82.25,91.37,9.78,-1.32,0.14,14,5036
0,1027098.0,27.0,16.0,2.0,18.0,1897.0,0.03,-0.04,0.16,0.0,-0.01,-0.0,250.94,82.25,92.0,9.75,-1.35,0.11,14,5036
0,1027314.0,27.0,13.0,2.0,3.0,1195.0,0.0,-0.04,0.17,0.0,0.01,0.0,250.94,82.25,92.06,9.75,-1.34,0.16,14,5036
0,1027532.0,25.0,10.0,0.0,3.0,1773.0,0.02,-0.04,0.05,0.01,0.02,0.01,250.94,82.25,91.75,9.74,-1.35,0.01,14,5036
0,1027750.0,25.0,4.0,0.0,0.0,1879.0,-0.11,-0.06,-0.36,-0.16,-0.27,0.18,251.69,81.75,102.69,9.59,-1.43,-0.67,14,5036
0,1027966.0,29.0,7.0,5.0,0.0,1915.0,-0.01,-0.03,0.14,-0.04,0.02,0.02,251.5,81.75,99.0,9.68,-1.41,-0.07,14,5036
0,1028184.0,24.0,7.0,106.0,16.0,1915.0,0.05,-0.1,0.06,-0.05,-0.01,0.01,251.94,81.75,97.69,9.75,-1.48,-0.12,14,5036
0,1028398.0,29.0,13.0,421.0,3.0,1907.0,0.07,-0.1,0.0,-0.05,0.03,0.01,252.87,81.75,99.44,9.77,-1.47,-0.29,14,5036
0,1028612.0,19.0,3.0,493.0,19.0,1931.0,0.07,0.02,0.19,-0.02,0.02,0.03,252.94,81.62,97.0,9.77,-1.38,0.02,14,5036
0,1028832.0,27.0,5.0,279.0,1.0,1931.0,0.04,0.01,0.21,0.02,-0.01,-0.0,252.37,81.37,94.44,9.74,-1.44,0.09,14,5036
0,1029046.0,13.0,9.0,0.0,1.0,1931.0,-0.02,-0.01,-0.1,-0.01,0.01,0.01,252.44,81.37,94.19,9.65,-1.5,-0.22,14,5036
0,1029266.0,23.0,9.0,0.0,0.0,1927.0,0.17,0.15,0.34,0.06,0.02,-0.02,251.94,81.87,87.44,9.76,-1.32,0.29,14,5036
0,1029490.0,21.0,9.0,0.0,5.0,1882.0,0.38,0.01,-0.05,0.01,-0.02,-0.0,251.81,81.87,87.06,10.09,-1.36,0.0,14,5036
0,1029706.0,25.0,5.0,0.0,0.0,1940.0,-0.07,0.11,0.07,0.0,-0.01,-0.0,251.44,81.81,85.25,9.72,-1.28,0.16,14,5036
0,1029925.0,29.0,11.0,1.0,0.0,1901.0,0.2,-0.2,-0.07,-0.01,-0.0,0.01,251.44,81.81,85.44,9.9,-1.58,0.03,14,5036
0,1030145.0,25.0,5.0,2.0,0.0,1907.0,0.04,0.04,0.05,0.03,0.01,0.01,251.19,81.75,85.19,9.75,-1.35,0.17,14,5036
0,1030361.0,30.0,13.0,13.0,1.0,1892.0,0.04,0.05,0.0,0.01,0.01,0.0,251.06,81.69,84.81,9.75,-1.35,0.12,14,5036
0,1030578.0,29.0,13.0,6.0,0.0,1822.0,0.66,0.13,0.04,-0.12,-0.33,-0.12,251.5,82.0,87.87,11.19,-1.25,-0.02,14,5036
0,1030798.0,25.0,13.0,0.0,11.0,1894.0,0.07,0.0,0.0,0.0,0.01,0.0,251.56,81.94,87.81,9.64,-1.35,0.13,14,5036
0,1031017.0,37.0,16.0,2.0,5.0,1763.0,0.16,-0.26,-0.13,0.06,0.02,0.02,251.25,81.87,89.0,9.56,-1.52,0.02,14,5036
0,1031239.0,27.0,7.0,0.0,6.0,1957.0,0.06,-0.15,0.17,0.07,0.06,0.03,250.06,81.37,82.44,9.75,-1.6,0.36,14,5036
0,1031455.0,35.0,15.0,4.0,0.0,2019.0,0.07,0.17,0.04,-0.05,0.01,-0.02,250.0,80.87,76.69,9.75,-1.32,0.39,14,5036
0,1031676.0,29.0,13.0,1.0,0.0,2043.0,-0.01,0.18,-0.01,0.02,0.02,0.01,250.19,80.75,75.12,9.6,-1.24,0.41,14,5036
0,1031899.0,26.0,13.0,1.0,9.0,2029.0,0.05,0.0,0.0,0.09,0.06,0.06,249.56,80.5,75.56,9.73,-1.55,0.41,14,5036
0,1032118.0,27.0,12.0,802.0,1.0,1996.0,-0.43,-0.06,-0.17,0.07,-0.01,0.03,248.44,80.25,75.94,9.22,-1.66,0.22,14,5036
0,1032339.0,25.0,11.0,23.0,0.0,2019.0,-0.34,-0.03,-0.06,-0.11,-0.21,-0.1,249.25,81.06,81.25,9.34,-1.53,0.16,14,5036
0,1032555.0,26.0,8.0,0.0,17.0,1993.0,0.05,0.01,0.21,-0.13,-0.03,-0.02,250.37,81.56,86.87,9.75,-1.41,0.29,14,5036
0,1032769.0,21.0,7.0,0.0,0.0,1979.0,0.11,0.04,-0.11,-0.03,0.18,0.04,251.56,81.5,83.94,9.81,-1.39,0.04,14,5036
0,1032986.0,23.0,3.0,0.0,0.0,2009.0,0.4,0.43,-0.19,-0.02,0.82,-0.03,252.56,78.69,48.81,10.01,-1.0,1.06,14,5036
0,1033205.0,36.0,17.0,2.0,0.0,1437.0,0.21,-0.26,0.3,0.04,-0.14,0.0,253.87,74.56,29.56,9.66,-1.55,2.55,14,5036
0,1033423.0,41.0,10.0,0.0,7.0,1337.0,1.08,0.28,0.36,0.03,-0.44,0.03,252.56,76.44,39.06,10.63,-1.16,2.09,14,5036
0,1033644.0,27.0,8.0,0.0,0.0,1221.0,0.62,0.65,-0.08,0.07,-0.69,-0.12,250.81,80.56,72.37,8.27,-0.96,0.8,14,5036
0,1033860.0,26.0,11.0,0.0,13.0,1699.0,-0.53,0.14,0.15,0.27,0.08,0.05,249.37,81.19,93.06,9.15,-1.34,0.07,14,5036
0,1034080.0,43.0,6.0,3.0,0.0,1723.0,0.19,-0.01,0.03,-0.04,0.02,-0.01,248.81,81.25,93.69,9.89,-1.49,-0.06,14,5036
0,1034302.0,26.0,17.0,0.0,1.0,1816.0,0.41,0.57,-0.02,-0.13,0.46,0.04,249.62,80.0,74.69,10.07,-1.07,0.42,14,5036
0,1034515.0,5.0,21.0,7.0,0.0,1894.0,-0.2,0.08,-0.11,0.12,1.45,0.06,252.5,71.62,29.69,9.07,-1.44,2.68,14,5036
0,1034736.0,25.0,1.0,52.0,1.0,2087.0,-0.01,-1.19,-0.18,-0.16,-0.8,0.2,251.25,69.87,29.56,9.2,-2.88,2.67,14,5036
0,1034955.0,27.0,11.0,1352.0,4.0,2105.0,0.25,0.06,0.06,-0.1,-0.8,0.18,247.94,74.94,49.63,9.72,-1.87,1.71,14,5036
0,1035171.0,22.0,7.0,1998.0,17.0,2075.0,0.55,0.1,0.32,0.16,-0.43,-0.14,244.25,75.0,57.69,10.03,-2.03,1.67,14,5036
0,1035391.0,24.0,6.0,16.0,0.0,2039.0,0.27,-0.21,-0.3,-0.05,0.09,-0.02,245.06,77.62,67.0,9.85,-2.14,0.51,14,5036
0,1035610.0,29.0,11.0,3.0,0.0,2078.0,0.06,-0.07,-0.81,-0.1,-0.33,-0.09,246.06,77.56,68.75,9.64,-2.03,-0.08,14,5036
0,1035829.0,25.0,7.0,92.0,5.0,2126.0,0.88,-0.31,0.57,0.22,-0.19,0.05,242.94,79.94,87.69,10.54,-2.03,0.62,14,5036
0,1036048.0,19.0,9.0,1932.0,9.0,2131.0,0.28,-0.67,0.58,-0.1,0.74,0.28,240.31,76.87,70.0,9.43,-3.27,1.2,14,5036
0,1036265.0,22.0,7.0,191.0,0.0,2069.0,1.1,-0.65,-0.3,-0.18,-0.12,0.42,241.06,73.37,60.25,10.87,-2.91,0.72,14,5036
0,1036483.0,30.0,23.0,10.0,0.0,1413.0,-1.59,-0.61,-0.11,-0.12,0.15,-0.28,236.5,69.31,74.56,7.57,-3.95,0.8,14,5036
0,1036702.0,43.0,8.0,4.0,0.0,1289.0,-0.29,0.45,-0.37,0.05,0.21,-0.8,244.19,75.12,65.69,9.19,-1.75,0.67,14,5036
0,1036918.0,25.0,3.0,0.0,21.0,1746.0,0.6,0.5,-0.53,-0.04,-0.43,-0.19,250.94,81.81,61.56,10.31,-0.72,0.11,14,5036
0,1037137.0,39.0,19.0,23.0,18.0,1509.0,-0.31,-0.61,-0.17,-0.04,-0.01,0.09,249.44,79.62,54.75,9.01,-2.27,0.97,14,5036
0,1037360.0,31.0,11.0,365.0,0.0,1939.0,0.11,0.11,-0.01,-0.01,0.2,0.05,248.69,78.19,51.19,9.65,-1.42,1.3,14,5036
0,1037576.0,29.0,9.0,777.0,12.0,1960.0,-0.08,0.19,-0.12,-0.02,0.11,0.06,248.5,76.62,46.25,9.45,-1.44,1.44,14,5036
0,1037795.0,30.0,11.0,1085.0,3.0,1962.0,0.03,0.05,-0.13,-0.04,-0.15,0.05,247.87,76.69,51.44,9.58,-1.7,1.26,14,5036
0,1038011.0,33.0,7.0,1439.0,12.0,1945.0,0.56,0.14,-0.26,0.08,-0.1,0.01,246.87,76.75,53.81,9.55,-1.7,1.05,14,5036
0,1038228.0,28.0,11.0,924.0,4.0,1948.0,-0.03,0.56,-0.23,0.0,-0.04,-0.0,246.44,76.94,54.5,9.63,-1.42,1.07,14,5036
0,1038449.0,20.0,0.0,743.0,17.0,1976.0,-0.1,0.15,-0.04,0.02,0.02,0.0,247.06,76.87,53.56,9.44,-1.62,1.27,14,5036
0,1038665.0,26.0,11.0,0.0,0.0,1982.0,0.17,0.15,-0.17,-0.02,0.02,0.01,247.37,77.31,54.63,9.74,-1.59,1.06,14,5036
0,1038882.0,26.0,6.0,870.0,0.0,1979.0,0.05,-0.33,-0.2,0.06,-0.02,0.03,246.75,77.12,55.19,9.61,-2.13,1.03,14,5036
0,1039097.0,30.0,13.0,1193.0,36.0,1955.0,0.0,0.11,-0.18,0.04,0.06,0.06,245.62,76.87,56.06,9.55,-1.72,1.05,14,5036
0,1039313.0,28.0,9.0,1720.0,26.0,1982.0,0.28,-0.17,0.01,0.07,-0.02,0.02,244.81,76.81,56.69,9.7,-2.02,1.16,14,5036
0,1039529.0,23.0,7.0,1798.0,3.0,1966.0,0.13,0.07,-0.12,-0.01,0.01,0.02,244.12,76.31,55.44,9.66,-1.83,1.19,14,5036
0,1039752.0,31.0,17.0,1983.0,51.0,1299.0,1.02,-0.06,0.06,0.01,-0.04,-0.03,243.81,76.0,55.06,10.54,-2.0,1.42,14,5036
0,1039969.0,31.0,18.0,0.0,0.0,1204.0,-1.01,-0.33,-0.15,-0.19,-0.56,-0.26,246.12,79.37,67.5,8.62,-1.99,0.52,14,5036
0,1040191.0,30.0,11.0,306.0,3.0,1815.0,0.24,0.18,-0.08,0.12,0.05,0.03,246.37,80.37,76.06,9.84,-1.46,0.21,14,5036
0,1040412.0,26.0,11.0,427.0,0.0,1832.0,-0.03,-0.61,0.05,0.04,-0.03,-0.02,245.25,80.5,73.12,9.63,-2.15,0.52,14,5036
0,1040632.0,29.0,7.0,2.0,19.0,1847.0,0.18,0.35,-0.38,0.01,-0.01,0.0,245.69,80.94,76.06,9.39,-0.59,0.23,14,5036
0,1040852.0,27.0,10.0,3.0,3.0,1791.0,0.4,-0.04,-0.11,-0.05,0.15,0.05,246.31,80.62,71.31,10.08,-1.55,0.39,14,5036
0,1041070.0,36.0,18.0,7.0,0.0,1896.0,0.1,0.0,-0.08,-0.02,0.01,-0.0,246.31,80.06,66.81,9.76,-1.55,0.58,14,5036
0,1041289.0,30.0,9.0,5.0,0.0,1884.0,0.07,0.05,-0.11,-0.0,-0.01,0.0,246.5,80.06,66.62,9.73,-1.49,0.55,14,5036
0,1041506.0,25.0,11.0,0.0,0.0,1811.0,0.14,0.07,-0.05,0.0,0.01,0.01,246.44,80.12,67.19,10.09,-1.43,0.56,14,5036
0,1041722.0,11.0,2.0,0.0,1.0,1876.0,0.09,-0.05,-0.08,-0.02,0.03,0.0,246.5,79.87,65.0,9.75,-1.61,0.64,14,5036
0,1041938.0,23.0,5.0,0.0,0.0,1886.0,0.02,0.06,-0.01,-0.01,-0.01,-0.0,246.37,79.62,64.12,9.66,-1.52,0.74,14,5036
0,1042159.0,23.0,5.0,0.0,0.0,1893.0,-0.08,-0.23,-0.13,-0.01,-0.02,0.01,246.25,79.5,63.75,9.55,-1.83,0.65,14,5036
0,1042375.0,29.0,17.0,11.0,0.0,1867.0,-0.22,-0.04,-0.08,0.02,0.03,0.02,246.12,79.5,64.44,9.41,-1.65,0.69,14,5036
0,1042595.0,37.0,9.0,555.0,9.0,1874.0,0.0,0.11,0.13,0.05,0.06,0.03,245.75,79.25,63.44,9.93,-1.58,0.99,14,5036
0,1042811.0,19.0,6.0,894.0,0.0,1869.0,-0.01,0.08,0.0,-0.01,-0.02,0.0,245.19,78.87,62.56,9.61,-1.59,0.86,14,5036
0,1043029.0,26.0,18.0,947.0,10.0,1240.0,0.25,0.07,-0.23,-0.02,-0.03,0.01,245.12,78.94,62.75,9.87,-1.59,0.61,14,5036
0,1043248.0,37.0,21.0,1.0,0.0,1179.0,0.18,0.06,-0.18,-0.02,-0.05,-0.0,247.0,81.19,75.69,9.87,-1.39,0.18,14,5036
0,1043466.0,29.0,9.0,1.0,0.0,1811.0,-0.08,-0.07,-0.06,0.06,0.05,0.0,246.31,80.69,72.5,9.58,-1.58,0.41,14,5036
0,1043680.0,22.0,6.0,198.0,0.0,1811.0,0.02,0.09,-0.05,0.02,0.02,0.01,245.81,80.56,71.5,9.7,-1.43,0.45,14,5036
0,1043897.0,33.0,7.0,11.0,0.0,1833.0,0.06,0.2,-0.08,0.0,0.02,-0.0,245.87,80.44,69.62,9.74,-1.27,0.52,14,5036
0,1044115.0,27.0,7.0,0.0,23.0,1839.0,0.1,0.06,-0.07,-0.01,-0.03,-0.01,245.87,80.5,69.81,9.77,-1.44,0.48,14,5036
0,1044331.0,23.0,9.0,0.0,0.0,1837.0,0.03,0.0,-0.04,-0.01,-0.03,-0.02,245.94,80.56,69.75,9.7,-1.5,0.51,14,5036
