class,time,fsr1,fsr2,fsr3,fsr4,angle,accx,accy,accz,gyro1,gyro2,gyro3,orient1,orient2,orient3,acc2x,acc2y,acc2z,participant,serialnumber
0,106003.0,27.0,8.0,0.0,1.0,2232.0,0.17,-0.03,0.16,-0.05,-0.04,0.76,2.31,64.12,61.25,8.98,-3.81,2.19,3,1156
0,106221.0,26.0,10.0,0.0,1.0,2342.0,0.12,0.15,0.08,-0.06,-0.06,1.1,351.0,53.81,70.62,8.03,-5.3,2.0,3,1156
0,106437.0,27.0,3.0,0.0,5.0,2526.0,0.16,0.13,0.1,-0.11,-0.04,1.22,337.31,40.63,76.69,6.0,-7.21,1.79,3,1156
0,106650.0,440.0,18.0,2.0,2.0,1995.0,-0.29,0.2,-0.02,-0.01,0.0,0.88,324.75,28.19,79.19,4.27,-8.32,1.59,3,1156
0,106871.0,3373.0,18.0,27.0,1.0,2044.0,-0.69,0.34,0.3,0.06,-0.04,0.13,317.44,21.5,79.5,2.9,-8.62,1.96,3,1156
0,107089.0,3414.0,17.0,27.0,0.0,2679.0,-0.2,0.18,0.18,-0.0,-0.02,-0.65,322.19,26.25,79.25,4.18,-8.42,1.82,3,1156
0,107305.0,3315.0,9.0,22.0,1.0,2522.0,-0.25,0.22,0.13,0.02,0.01,-0.87,331.25,35.19,78.0,5.45,-7.69,1.84,3,1156
0,107523.0,3229.0,11.0,25.0,3.0,2351.0,0.33,0.06,0.12,0.05,0.02,-1.0,343.12,46.56,74.69,7.45,-6.43,1.89,3,1156
0,107737.0,2787.0,10.0,20.0,1.0,2215.0,0.41,0.03,0.08,0.04,0.02,-1.02,354.25,56.94,69.06,8.93,-4.87,1.82,3,1156
0,107956.0,2424.0,4.0,18.0,0.0,2121.0,0.73,0.24,0.23,0.09,0.04,-0.82,4.69,66.44,58.13,9.72,-3.02,2.09,3,1156
0,108178.0,26.0,9.0,1.0,1.0,2006.0,0.11,-0.11,0.19,0.03,0.09,-0.24,9.63,70.06,46.13,9.33,-2.52,2.51,3,1156
0,108395.0,21.0,9.0,7.0,8.0,2021.0,0.24,-0.08,0.14,-0.01,-0.02,0.01,10.81,70.56,42.63,9.49,-2.29,2.54,3,1156
0,108614.0,27.0,7.0,0.0,1.0,1993.0,0.09,-0.15,0.0,-0.01,-0.03,0.03,10.44,70.44,44.69,9.33,-2.45,2.32,3,1156
0,108830.0,25.0,8.0,4.0,1.0,2133.0,-0.08,-0.03,0.14,-0.02,-0.02,0.21,9.06,69.62,48.13,9.31,-2.66,2.35,3,1156
0,109046.0,29.0,9.0,0.0,0.0,2169.0,0.2,-0.07,0.02,-0.07,-0.06,0.37,5.69,66.94,55.0,9.23,-3.21,2.22,3,1156
0,109266.0,28.0,7.0,0.0,0.0,2212.0,-0.04,-0.05,0.14,-0.03,-0.02,0.5,0.88,62.88,62.19,8.68,-4.0,2.23,3,1156
0,109488.0,27.0,9.0,0.0,0.0,2317.0,-0.19,0.02,0.17,-0.04,-0.03,0.61,353.94,56.63,68.31,8.0,-4.98,2.16,3,1156
0,109705.0,25.0,8.0,0.0,0.0,2252.0,0.15,0.0,0.11,-0.02,-0.03,0.27,349.19,52.25,71.37,7.9,-5.69,2.03,3,1156
0,109923.0,414.0,17.0,2.0,2.0,1678.0,-0.44,0.0,0.17,-0.01,-0.02,0.04,346.5,49.88,72.75,7.05,-6.04,2.04,3,1156
0,110140.0,2391.0,15.0,15.0,2.0,2303.0,0.11,0.05,0.13,0.01,0.02,-0.61,349.62,52.75,71.56,7.92,-5.57,2.0,3,1156
0,110361.0,2892.0,26.0,22.0,2.0,2089.0,0.82,0.23,0.1,0.0,0.01,-0.51,357.0,59.75,67.06,9.31,-4.27,2.02,3,1156
0,110578.0,2853.0,9.0,25.0,1.0,2197.0,0.26,-0.05,0.16,0.02,0.03,-0.59,2.5,64.62,62.0,9.13,-3.76,2.13,3,1156
0,110795.0,26.0,13.0,0.0,1.0,2135.0,-0.31,-0.01,0.18,0.06,0.07,-0.16,5.94,67.44,56.19,8.74,-3.12,2.29,3,1156
0,111012.0,41.0,9.0,0.0,1.0,1445.0,0.07,0.03,0.12,-0.08,-0.04,0.36,5.94,67.31,55.13,9.11,-3.1,2.28,3,1156
0,111229.0,26.0,0.0,0.0,2.0,2231.0,0.19,0.01,0.11,-0.02,-0.03,0.62,0.37,62.5,63.19,8.89,-4.02,2.15,3,1156
0,111443.0,41.0,17.0,0.0,3.0,2329.0,0.23,-0.01,0.07,-0.06,-0.06,0.74,352.62,55.31,69.56,8.48,-5.29,2.06,3,1156
0,111661.0,29.0,11.0,0.0,0.0,2451.0,-0.09,0.32,0.11,-0.1,-0.05,1.22,341.62,44.75,75.5,6.93,-6.57,1.87,3,1156
0,111878.0,25.0,8.0,0.0,1.0,2722.0,-0.74,0.0,0.22,-0.02,-0.02,0.79,328.75,32.13,78.5,4.47,-8.13,1.87,3,1156
0,112093.0,3427.0,17.0,27.0,10.0,2164.0,-0.25,0.21,0.03,0.01,-0.04,0.22,323.37,27.12,79.25,4.35,-8.36,1.55,3,1156
0,112309.0,3133.0,10.0,22.0,2.0,2553.0,-0.19,0.01,0.24,0.0,-0.03,-0.33,323.25,27.37,79.0,4.31,-8.53,1.9,3,1156
0,112528.0,3145.0,11.0,25.0,3.0,2403.0,0.18,-0.03,-0.04,-0.02,0.0,-0.97,330.75,34.5,78.19,5.74,-7.94,1.6,3,1156
0,112743.0,3399.0,9.0,25.0,1.0,2329.0,0.53,-0.19,0.07,0.03,-0.01,-0.51,338.44,42.13,76.37,6.92,-7.11,1.82,3,1156
0,112959.0,3295.0,9.0,23.0,5.0,2360.0,-0.8,0.16,0.21,-0.0,0.04,-0.62,344.12,47.5,74.12,6.42,-6.19,2.01,3,1156
0,113179.0,2874.0,8.0,20.0,1.0,2233.0,0.38,0.23,-0.13,0.02,0.01,-1.01,356.44,58.88,69.31,8.78,-4.5,1.64,3,1156
0,113394.0,41.0,3.0,0.0,6.0,2032.0,-0.41,0.11,0.34,0.08,0.16,-0.28,3.81,65.56,59.88,8.94,-3.28,2.25,3,1156
0,113609.0,13.0,9.0,0.0,1.0,2093.0,0.4,-0.11,0.04,0.01,0.02,-0.01,6.44,67.12,53.5,9.44,-3.17,2.3,3,1156
0,113825.0,17.0,8.0,0.0,6.0,2099.0,-0.14,-0.01,0.06,-0.03,-0.04,0.05,5.75,66.69,55.44,8.85,-3.21,2.25,3,1156
0,114043.0,18.0,13.0,0.0,1.0,1994.0,0.52,-0.05,0.21,-0.06,-0.11,0.17,5.25,66.5,57.75,9.52,-3.35,2.3,3,1156
0,114258.0,39.0,10.0,0.0,1.0,2207.0,0.26,0.18,0.05,-0.09,-0.05,0.74,359.44,61.31,66.25,8.83,-4.18,1.94,3,1156
0,114474.0,39.0,10.0,0.0,2.0,2285.0,0.69,0.2,0.19,-0.06,-0.08,1.01,349.19,51.75,73.37,7.7,-5.73,1.98,3,1156
0,114690.0,317.0,23.0,11.0,4.0,1839.0,-1.14,-0.07,0.17,-0.07,-0.03,0.95,335.37,38.38,78.25,4.94,-7.59,1.74,3,1156
0,114904.0,3752.0,5.0,27.0,0.0,2477.0,-0.5,0.08,0.21,-0.01,-0.03,0.18,329.44,32.69,79.81,4.77,-8.04,1.67,3,1156
0,115121.0,4095.0,0.0,35.0,3.0,2446.0,0.14,0.09,0.16,0.01,-0.02,0.17,328.12,31.5,79.81,5.27,-8.12,1.63,3,1156
0,115340.0,4095.0,4.0,31.0,1.0,2457.0,-0.01,0.02,0.14,0.02,-0.01,-0.04,326.69,30.31,79.62,4.94,-8.3,1.67,3,1156
0,115555.0,4095.0,0.0,33.0,1.0,2453.0,0.0,0.09,0.13,-0.0,0.0,0.01,326.94,30.56,79.31,4.99,-8.2,1.69,3,1156
0,115774.0,4095.0,7.0,31.0,2.0,2430.0,-0.12,0.13,0.1,-0.01,0.01,0.02,326.75,30.37,79.25,4.79,-8.19,1.68,3,1156
0,115992.0,4095.0,9.0,31.0,1.0,2393.0,-0.01,-0.02,0.14,-0.0,0.0,0.05,326.62,30.19,79.25,4.92,-8.34,1.72,3,1156
0,116206.0,3999.0,9.0,29.0,1.0,2284.0,0.05,0.02,0.09,0.01,0.0,-0.1,327.12,30.62,79.12,5.02,-8.24,1.65,3,1156
0,116424.0,3095.0,21.0,23.0,9.0,2217.0,-0.25,0.06,0.07,0.03,0.0,-0.34,329.81,33.19,78.69,5.84,-7.83,1.68,3,1156
0,116642.0,26.0,9.0,0.0,2.0,2237.0,-0.16,0.02,0.18,0.01,0.02,-0.21,334.06,37.25,77.5,5.76,-7.59,1.86,3,1156
0,116859.0,26.0,5.0,0.0,2.0,2267.0,0.08,0.05,0.15,0.01,-0.01,0.05,335.75,38.88,76.62,6.24,-7.36,1.91,3,1156
0,117082.0,26.0,9.0,0.0,0.0,2270.0,0.13,0.0,0.01,0.01,-0.0,0.0,335.75,38.69,76.81,6.27,-7.45,1.75,3,1156
0,117297.0,31.0,18.0,17.0,1.0,1813.0,-0.13,-0.11,0.0,-0.01,-0.05,-0.12,335.81,38.81,76.87,6.01,-7.56,1.72,3,1156
0,117514.0,505.0,7.0,1.0,3.0,2090.0,-0.41,-0.09,-0.2,0.02,0.03,-0.73,340.06,42.94,75.81,5.43,-7.18,1.66,3,1156
0,117735.0,6.0,8.0,1.0,1.0,1931.0,0.52,0.15,-0.17,0.11,0.09,-0.89,351.5,53.94,70.5,8.46,-5.27,1.74,3,1156
0,117950.0,281.0,17.0,1.0,1.0,1453.0,-0.76,-0.01,0.1,0.06,0.08,-0.58,359.56,61.5,63.31,8.78,-3.97,2.09,3,1156
0,118167.0,25.0,17.0,6.0,2.0,1350.0,-1.26,0.12,0.04,0.09,0.24,-0.68,8.56,69.06,50.19,8.23,-2.64,2.5,3,1156
0,118386.0,31.0,17.0,0.0,1.0,1328.0,0.72,-0.14,0.09,0.04,0.08,-0.22,13.31,71.62,35.25,10.03,-1.92,2.61,3,1156
0,118602.0,25.0,9.0,0.0,1.0,1774.0,0.0,-0.18,-0.06,-0.0,-0.0,0.03,13.94,71.87,33.75,9.32,-1.88,2.46,3,1156
0,118818.0,4.0,4.0,0.0,8.0,1784.0,0.09,-0.15,-0.03,-0.03,-0.05,0.07,13.69,71.87,35.19,9.41,-1.91,2.44,3,1156
0,119035.0,23.0,7.0,0.0,1.0,1721.0,0.21,-0.14,0.06,-0.04,-0.08,0.15,12.63,71.75,40.13,9.52,-2.12,2.41,3,1156
0,119254.0,12.0,9.0,0.0,6.0,1823.0,0.14,-0.1,0.06,-0.03,-0.02,0.35,9.63,69.75,48.44,9.34,-2.64,2.31,3,1156
0,119471.0,35.0,17.0,0.0,2.0,1899.0,0.08,-0.08,0.04,-0.08,-0.06,0.63,4.25,65.31,58.88,8.97,-3.63,2.14,3,1156
0,119689.0,27.0,10.0,0.0,3.0,1952.0,0.07,-0.09,0.04,-0.07,-0.05,0.97,355.19,57.13,68.69,8.3,-5.05,1.97,3,1156
0,119909.0,31.0,37.0,0.0,1.0,1757.0,-0.68,-0.11,0.21,-0.04,-0.06,1.0,342.62,45.38,75.06,5.94,-7.02,1.94,3,1156
0,120125.0,3303.0,22.0,25.0,2.0,2229.0,-0.64,-0.09,0.0,-0.05,-0.03,0.2,336.12,39.19,77.69,5.55,-7.51,1.62,3,1156
0,120343.0,3663.0,9.0,28.0,2.0,2291.0,0.02,-0.09,0.07,0.0,-0.01,0.07,335.0,38.19,78.0,6.09,-7.63,1.67,3,1156
0,120559.0,3919.0,6.0,31.0,1.0,2284.0,0.09,-0.08,0.08,0.02,-0.01,0.01,334.44,37.56,78.12,6.13,-7.67,1.67,3,1156
0,120779.0,3381.0,9.0,25.0,3.0,2280.0,0.13,0.0,0.06,-0.01,0.01,-0.14,334.69,37.81,77.81,6.16,-7.55,1.68,3,1156
0,120999.0,3247.0,5.0,24.0,2.0,2324.0,0.07,0.01,0.02,0.01,-0.02,-0.43,337.5,40.56,77.12,6.45,-7.24,1.68,3,1156
0,121219.0,2924.0,8.0,21.0,1.0,2250.0,-0.04,0.21,0.07,0.02,-0.01,-0.53,342.56,45.75,75.87,7.02,-6.38,1.74,3,1156
0,121440.0,26.0,8.0,0.0,2.0,2264.0,-0.06,-0.06,0.19,0.04,-0.0,-0.09,346.37,49.56,74.06,7.39,-6.17,1.94,3,1156
0,121654.0,27.0,8.0,0.0,2.0,2271.0,0.68,-0.28,0.01,-0.0,0.0,-0.07,347.44,50.56,73.12,8.27,-6.23,1.81,3,1156
0,121870.0,8.0,7.0,0.0,1.0,2314.0,-0.31,-0.04,-0.01,-0.06,0.01,0.45,344.69,47.88,74.37,6.85,-6.48,1.74,3,1156
0,122089.0,24.0,13.0,0.0,2.0,2421.0,1.04,-0.02,0.18,0.03,-0.03,0.27,342.19,45.5,75.31,8.04,-6.67,1.92,3,1156
0,122302.0,26.0,10.0,0.0,1.0,2483.0,-0.25,0.08,0.09,-0.07,-0.0,0.91,333.5,37.06,77.69,5.84,-7.63,1.65,3,1156
0,122518.0,3055.0,13.0,23.0,2.0,2468.0,-0.72,0.15,0.25,-0.01,-0.02,0.16,327.0,30.81,79.0,4.29,-8.1,1.85,3,1156
0,122736.0,2750.0,11.0,19.0,1.0,2407.0,-0.27,0.03,-0.04,0.01,-0.01,-1.02,332.69,36.25,78.62,5.59,-7.66,1.51,3,1156
0,122956.0,2621.0,4.0,19.0,2.0,2228.0,0.44,0.16,0.11,0.08,0.07,-0.89,345.75,48.88,74.81,7.88,-5.98,1.8,3,1156
0,123173.0,2334.0,10.0,9.0,1.0,2021.0,0.02,0.08,0.24,0.11,0.03,-0.77,355.62,58.31,68.69,8.4,-4.65,2.12,3,1156
0,123392.0,1707.0,15.0,7.0,0.0,1371.0,1.02,0.44,0.17,0.08,0.06,-0.6,3.44,65.69,59.38,9.96,-3.02,2.23,3,1156
0,123611.0,35.0,20.0,0.0,0.0,1353.0,0.37,-0.16,0.0,0.0,0.09,-0.26,8.0,68.94,50.44,9.34,-2.82,2.24,3,1156
0,123832.0,38.0,9.0,0.0,0.0,2067.0,0.0,-0.1,-0.03,0.01,0.03,-0.09,9.56,69.62,46.88,9.21,-2.62,2.28,3,1156
0,124052.0,41.0,7.0,0.0,1.0,1983.0,0.07,-0.05,0.04,-0.02,-0.03,0.05,10.06,69.87,45.94,9.28,-2.47,2.38,3,1156
0,124266.0,25.0,9.0,4.0,2.0,2071.0,0.03,-0.05,0.01,-0.02,-0.02,0.02,9.69,69.75,47.13,9.23,-2.53,2.31,3,1156
0,124482.0,25.0,9.0,0.0,0.0,2012.0,0.01,-0.08,0.05,-0.01,-0.0,0.0,9.56,69.69,47.69,9.2,-2.6,2.34,3,1156
0,124700.0,25.0,9.0,0.0,5.0,2045.0,0.0,-0.11,0.0,-0.0,-0.0,0.01,9.56,69.69,48.19,9.2,-2.65,2.26,3,1156
0,124919.0,26.0,4.0,0.0,7.0,2059.0,0.06,-0.12,-0.03,-0.01,-0.01,-0.01,9.63,69.69,48.25,9.25,-2.66,2.22,3,1156
0,125139.0,27.0,7.0,0.0,2.0,2011.0,-0.03,-0.07,0.06,0.01,0.01,-0.01,9.56,69.62,48.19,9.16,-2.61,2.33,3,1156
0,125357.0,27.0,9.0,6.0,2.0,2085.0,0.0,-0.15,-0.03,-0.01,-0.01,0.01,9.63,69.69,48.25,9.19,-2.69,2.22,3,1156
0,125577.0,26.0,9.0,0.0,3.0,2075.0,-0.05,-0.09,0.01,-0.01,-0.02,0.0,9.5,69.62,49.0,9.13,-2.66,2.24,3,1156
0,125798.0,28.0,17.0,1.0,0.0,1333.0,-0.59,0.01,0.16,0.01,0.01,-0.21,10.56,70.69,47.63,8.65,-2.38,2.34,3,1156
0,126014.0,26.0,7.0,0.0,1.0,2001.0,-0.22,-0.04,0.01,0.01,-0.01,0.04,11.13,71.19,46.81,9.45,-2.33,2.17,3,1156
0,126233.0,25.0,9.0,0.0,1.0,1997.0,-0.04,-0.2,0.02,-0.0,-0.0,0.1,10.63,70.75,47.94,9.43,-2.54,2.17,3,1156
0,126455.0,27.0,10.0,0.0,2.0,2095.0,0.46,-0.05,0.08,-0.06,-0.02,0.49,8.44,69.06,53.0,9.62,-2.85,2.18,3,1156
0,126670.0,21.0,13.0,0.0,0.0,2120.0,0.36,-0.06,0.1,-0.05,-0.05,0.57,2.12,63.69,62.38,9.15,-3.91,2.11,3,1156
0,126889.0,26.0,9.0,0.0,2.0,2239.0,-0.09,-0.19,-0.15,-0.07,-0.06,0.83,353.87,55.81,70.25,7.98,-5.44,1.69,3,1156
0,127105.0,26.0,7.0,0.0,2.0,2380.0,-0.08,-0.07,0.08,-0.03,-0.04,0.75,344.37,46.94,74.87,7.08,-6.53,1.82,3,1156
0,127320.0,27.0,13.0,0.0,2.0,2473.0,-0.48,-0.09,0.09,-0.01,-0.02,0.68,335.31,38.31,77.37,5.6,-7.6,1.77,3,1156
0,127540.0,2263.0,1.0,13.0,2.0,2474.0,-0.79,-0.03,0.2,-0.0,-0.04,0.19,329.44,32.88,78.44,4.52,-8.11,1.84,3,1156
0,127756.0,2930.0,0.0,21.0,0.0,2387.0,-0.27,0.07,0.07,0.0,-0.01,-0.66,332.06,35.44,78.19,5.41,-7.74,1.71,3,1156
0,127971.0,2807.0,5.0,20.0,9.0,2276.0,-0.13,0.18,0.05,0.05,0.04,-0.98,342.12,45.06,75.69,6.81,-6.52,1.75,3,1156
0,128190.0,2589.0,17.0,19.0,1.0,1514.0,-0.48,0.08,0.05,0.08,0.07,-0.94,353.31,55.63,70.19,7.65,-5.05,1.94,3,1156
0,128407.0,2159.0,11.0,8.0,1.0,2071.0,0.43,0.11,-0.01,0.05,0.06,-0.8,3.06,64.56,61.25,9.29,-3.57,2.0,3,1156
0,128623.0,25.0,18.0,0.0,1.0,1361.0,0.27,0.05,0.02,0.06,0.07,-0.23,9.06,69.44,50.06,9.45,-2.58,2.23,3,1156
0,128840.0,27.0,10.0,0.0,2.0,2037.0,0.22,0.0,0.04,-0.05,-0.07,0.12,10.25,70.19,46.88,9.45,-2.43,2.3,3,1156
0,129058.0,31.0,7.0,0.0,1.0,2092.0,0.12,-0.2,0.09,-0.02,-0.01,0.28,8.44,68.94,51.94,9.28,-2.97,2.26,3,1156
0,129276.0,10.0,10.0,0.0,1.0,2133.0,0.38,-0.06,0.07,-0.05,-0.06,0.62,3.69,64.94,59.75,9.25,-3.69,2.15,3,1156
0,129501.0,21.0,9.0,0.0,0.0,2279.0,-0.13,0.02,-0.02,-0.08,-0.05,0.9,354.5,56.56,69.06,8.0,-5.09,1.89,3,1156
0,129722.0,28.0,7.0,0.0,3.0,2491.0,0.11,0.09,0.02,-0.04,-0.04,0.86,343.94,46.56,74.62,7.18,-6.45,1.79,3,1156
0,129946.0,31.0,21.0,1.0,4.0,1878.0,-0.7,0.07,0.09,-0.02,-0.01,0.8,333.69,36.69,77.69,5.15,-7.6,1.76,3,1156
0,130162.0,3061.0,0.0,15.0,3.0,2613.0,-0.74,0.1,0.15,-0.02,-0.01,0.1,328.0,31.44,78.62,4.36,-8.09,1.8,3,1156
0,130382.0,3235.0,9.0,23.0,2.0,2438.0,-0.02,0.3,0.33,0.03,-0.01,-0.58,331.94,35.31,78.12,5.69,-7.48,1.98,3,1156
0,130600.0,3044.0,11.0,23.0,0.0,2390.0,0.08,0.14,0.19,0.04,0.01,-0.73,340.0,43.13,76.37,6.66,-6.68,1.97,3,1156
0,130815.0,2906.0,6.0,21.0,1.0,2229.0,0.39,0.24,0.26,0.03,0.05,-0.8,349.56,52.19,72.62,8.14,-5.49,2.05,3,1156
0,131035.0,2749.0,8.0,20.0,1.0,2069.0,0.01,0.1,0.34,0.06,0.03,-0.51,357.69,60.06,67.12,8.51,-4.4,2.24,3,1156
0,131255.0,10.0,0.0,0.0,0.0,2018.0,0.45,0.11,0.21,0.0,0.06,-0.18,2.94,64.69,61.0,9.31,-3.54,2.24,3,1156
0,131470.0,27.0,10.0,1.0,2.0,2164.0,0.1,-0.14,0.08,0.01,0.03,0.04,3.75,65.12,59.38,8.99,-3.69,2.18,3,1156
0,131691.0,25.0,10.0,9.0,2.0,2190.0,-0.06,-0.09,0.08,-0.02,-0.01,0.25,2.0,63.63,61.56,8.71,-3.94,2.15,3,1156
0,131906.0,26.0,9.0,0.0,1.0,2279.0,0.53,0.1,0.15,-0.07,-0.03,0.51,358.12,60.13,65.25,9.04,-4.33,2.19,3,1156
0,132123.0,26.0,11.0,0.0,7.0,2251.0,-0.04,-0.04,0.01,-0.05,-0.05,0.65,350.81,53.0,71.25,7.75,-5.68,1.89,3,1156
0,132341.0,21.0,9.0,0.0,0.0,2374.0,0.21,0.05,0.18,-0.03,-0.04,0.54,344.12,46.75,74.37,7.32,-6.45,1.97,3,1156
0,132561.0,27.0,18.0,0.0,5.0,2363.0,-0.05,0.0,0.06,-0.01,-0.01,0.63,337.19,40.0,76.81,6.36,-7.28,1.81,3,1156
0,132778.0,3189.0,0.0,27.0,3.0,2469.0,-0.22,0.01,0.3,0.01,-0.02,0.28,331.06,34.38,78.12,5.12,-7.87,1.9,3,1156
0,132998.0,3435.0,10.0,25.0,1.0,2355.0,0.22,0.03,0.13,0.02,-0.02,-0.32,332.12,35.38,78.0,5.9,-7.78,1.79,3,1156
0,133212.0,3047.0,6.0,24.0,2.0,2264.0,-0.26,-0.2,0.01,-0.02,-0.01,-0.54,336.37,39.44,77.19,6.34,-7.42,1.79,3,1156
0,133429.0,3007.0,10.0,21.0,4.0,2136.0,-0.11,-0.02,-0.05,0.01,0.02,-0.78,344.56,47.31,75.12,7.27,-6.41,1.73,3,1156
0,133648.0,2729.0,0.0,19.0,3.0,1980.0,-0.09,-0.08,-0.14,0.04,0.01,-1.01,355.25,57.25,70.19,8.15,-5.07,1.64,3,1156
0,133861.0,27.0,0.0,0.0,1.0,1943.0,1.25,0.06,-0.01,0.04,0.09,-0.4,3.81,64.94,61.31,10.14,-3.57,1.97,3,1156
0,134078.0,26.0,8.0,0.0,1.0,2079.0,0.05,-0.07,0.03,-0.01,-0.02,0.12,4.75,65.5,60.0,8.98,-3.59,2.06,3,1156
0,134299.0,27.0,6.0,5.0,1.0,2002.0,0.9,0.16,0.05,-0.02,-0.03,0.22,3.62,64.62,61.81,9.76,-3.54,2.03,3,1156
0,134515.0,26.0,8.0,6.0,3.0,2065.0,0.5,-0.02,0.12,-0.01,-0.02,0.3,359.81,61.19,65.25,9.08,-4.33,2.09,3,1156
0,134736.0,26.0,8.0,0.0,0.0,2251.0,-0.24,-0.11,0.06,-0.08,-0.04,0.85,352.19,54.0,71.19,7.69,-5.57,1.91,3,1156
0,134956.0,25.0,9.0,1.0,2.0,2314.0,-0.29,0.01,0.12,-0.03,-0.05,0.97,341.56,43.81,75.94,6.44,-6.91,1.83,3,1156
0,135172.0,613.0,21.0,2.0,1.0,1875.0,-0.43,-0.01,0.15,0.0,-0.01,0.43,332.37,35.13,78.06,4.73,-8.01,1.84,3,1156
0,135390.0,2958.0,11.0,24.0,0.0,2271.0,-0.74,-0.08,0.19,-0.03,-0.0,-0.44,331.5,34.5,78.06,5.49,-7.84,1.85,3,1156
0,135621.0,2895.0,9.0,22.0,1.0,2135.0,0.15,0.48,0.35,0.09,-0.0,-0.74,340.19,43.13,76.44,6.33,-6.38,2.13,3,1156
0,135840.0,2347.0,9.0,13.0,1.0,1994.0,0.25,0.18,0.21,0.08,0.04,-0.84,350.37,53.0,71.87,8.08,-5.42,2.04,3,1156
0,136059.0,2104.0,17.0,12.0,3.0,1865.0,0.32,-0.19,0.05,0.03,-0.01,-0.84,0.19,62.06,65.0,8.98,-4.34,1.98,3,1156
0,136272.0,713.0,16.0,3.0,0.0,1379.0,0.15,-0.09,0.09,-0.01,0.01,-0.18,6.44,67.5,58.13,9.21,-3.27,2.07,3,1156
0,136489.0,19.0,17.0,1.0,0.0,1433.0,0.48,0.02,0.08,0.01,0.02,0.12,5.69,66.75,58.13,9.49,-3.26,2.12,3,1156
0,136705.0,26.0,11.0,0.0,1.0,1963.0,0.42,0.09,0.13,-0.09,-0.04,0.75,1.25,62.63,63.88,9.05,-4.01,2.09,3,1156
0,136921.0,24.0,3.0,0.0,3.0,2141.0,-0.28,-0.02,0.13,-0.06,-0.06,0.93,350.5,52.31,72.5,7.47,-5.73,1.93,3,1156
0,137138.0,28.0,11.0,0.0,1.0,2261.0,-0.13,0.0,0.09,-0.04,-0.03,0.82,340.12,42.44,76.75,6.42,-7.09,1.74,3,1156
0,137356.0,35.0,5.0,0.0,1.0,2406.0,-0.33,0.02,0.07,-0.02,0.0,0.45,332.12,34.5,78.62,4.94,-7.89,1.76,3,1156
0,137570.0,31.0,17.0,10.0,1.0,1915.0,0.03,-0.16,0.11,-0.01,-0.01,0.04,329.62,32.06,78.81,5.24,-8.3,1.72,3,1156
0,137786.0,2694.0,17.0,25.0,2.0,1839.0,0.3,0.16,0.21,-0.01,-0.02,-0.21,330.5,33.0,78.75,5.67,-7.88,1.81,3,1156
0,138004.0,2005.0,13.0,11.0,1.0,1753.0,-0.31,-0.03,-0.25,0.04,0.05,-1.07,338.19,40.5,77.5,6.05,-7.31,1.35,3,1156
0,138220.0,360.0,19.0,2.0,2.0,1590.0,-0.34,0.35,0.19,0.09,0.11,-1.02,351.25,53.06,72.37,7.55,-5.18,1.98,3,1156
0,138441.0,44.0,17.0,0.0,1.0,1436.0,0.54,0.18,0.1,0.11,0.11,-0.82,3.5,64.44,60.81,9.39,-3.5,2.16,3,1156
0,138658.0,13.0,3.0,0.0,1.0,1797.0,0.34,-0.09,0.12,-0.01,-0.02,-0.45,11.5,70.94,47.06,9.63,-2.47,2.1,3,1156
0,138873.0,27.0,9.0,0.0,2.0,1866.0,0.37,-0.36,0.04,0.11,0.19,-0.26,14.31,72.25,37.06,9.71,-2.16,2.42,3,1156
0,139093.0,28.0,2.0,0.0,1.0,1916.0,-0.24,-0.11,0.02,-0.01,-0.02,0.02,14.19,72.12,36.38,9.09,-1.89,2.44,3,1156
0,139314.0,26.0,10.0,0.0,0.0,1915.0,0.84,-0.04,0.24,-0.18,-0.24,0.45,13.13,71.94,42.63,10.17,-2.1,2.47,3,1156
0,139528.0,26.0,9.0,0.0,3.0,2041.0,0.0,-0.12,0.05,-0.01,-0.03,0.85,3.81,64.56,60.44,8.83,-3.85,2.12,3,1156
0,139747.0,27.0,9.0,0.0,1.0,2231.0,0.17,0.1,0.12,-0.06,-0.06,0.96,353.0,55.0,69.31,8.16,-5.23,2.09,3,1156
0,139967.0,26.0,9.0,0.0,0.0,2415.0,0.06,0.02,0.07,-0.12,-0.04,0.88,341.94,44.13,75.56,6.9,-6.78,1.83,3,1156
0,140181.0,29.0,9.0,0.0,1.0,2501.0,-0.38,-0.14,0.12,0.01,-0.03,0.68,332.81,35.25,78.25,5.22,-8.01,1.75,3,1156
0,140401.0,3610.0,8.0,29.0,1.0,2493.0,-0.8,-0.02,0.13,-0.04,-0.0,0.17,327.0,29.75,79.25,4.05,-8.39,1.71,3,1156
0,140618.0,3276.0,9.0,25.0,4.0,2279.0,-0.64,0.11,0.22,0.01,-0.01,-0.67,329.81,32.31,78.87,4.59,-8.01,1.82,3,1156
0,140833.0,2983.0,11.0,23.0,1.0,1967.0,0.26,0.12,-0.01,0.04,0.05,-1.33,343.87,45.69,75.75,7.28,-6.5,1.66,3,1156
0,141050.0,2277.0,18.0,13.0,9.0,1480.0,0.24,0.12,0.26,0.13,0.02,-1.09,357.87,58.88,67.87,8.69,-4.47,2.17,3,1156
0,141268.0,904.0,17.0,4.0,0.0,1324.0,0.44,0.22,-0.08,0.06,0.03,-0.94,9.0,68.81,53.5,9.58,-2.62,2.01,3,1156
0,141487.0,27.0,9.0,0.0,1.0,1769.0,0.71,-0.02,0.09,0.02,0.07,-0.14,13.81,71.62,39.31,10.02,-1.98,2.48,3,1156
0,141703.0,26.0,9.0,10.0,9.0,1942.0,0.0,-0.04,0.07,0.0,-0.02,0.03,13.56,71.62,40.0,9.3,-2.03,2.43,3,1156
0,141916.0,19.0,9.0,1.0,1.0,1939.0,0.13,-0.15,0.0,0.0,-0.01,0.01,13.44,71.56,40.63,9.43,-2.16,2.34,3,1156
0,142135.0,18.0,9.0,1.0,0.0,1810.0,0.18,0.22,-0.01,-0.01,-0.01,0.35,11.81,70.81,45.63,9.45,-2.07,2.23,3,1156
0,142356.0,24.0,20.0,1.0,1.0,1764.0,0.37,0.13,0.12,-0.04,-0.05,0.69,6.06,66.56,56.0,9.37,-3.09,2.3,3,1156
0,142570.0,25.0,31.0,1.0,0.0,1925.0,0.15,0.39,0.13,-0.13,-0.03,1.04,356.62,58.06,67.12,8.47,-4.38,2.14,3,1156
0,142788.0,26.0,9.0,0.0,2.0,2120.0,-0.08,0.11,0.08,-0.07,-0.04,0.87,345.62,47.19,74.69,7.11,-6.27,1.81,3,1156
0,143005.0,1881.0,24.0,11.0,0.0,1789.0,-0.55,0.11,0.24,-0.04,-0.04,0.38,338.06,40.13,77.56,5.74,-7.22,1.85,3,1156
0,143222.0,2863.0,8.0,21.0,2.0,2138.0,0.03,-0.06,0.01,0.03,-0.02,-0.64,339.87,41.88,77.81,6.57,-7.26,1.51,3,1156
0,143440.0,3239.0,7.0,24.0,1.0,2142.0,0.42,0.0,0.09,0.04,0.03,-0.14,344.62,46.88,76.37,7.43,-6.55,1.66,3,1156
0,143658.0,2671.0,9.0,23.0,1.0,1991.0,-0.47,-0.19,0.03,0.11,-0.01,-0.75,347.62,49.81,74.31,7.01,-6.27,1.74,3,1156
0,143872.0,2406.0,17.0,17.0,1.0,1459.0,-0.36,0.37,-0.03,0.12,0.16,-1.02,357.31,59.5,67.56,8.15,-4.19,1.83,3,1156
0,144095.0,25.0,5.0,0.0,2.0,1900.0,-0.01,0.03,0.16,0.01,0.1,-0.18,5.69,66.75,55.63,8.99,-3.14,2.35,3,1156
0,144316.0,25.0,9.0,0.0,2.0,1901.0,0.51,-0.11,0.06,-0.02,-0.04,0.21,6.37,66.94,54.75,9.53,-3.26,2.27,3,1156
0,144534.0,25.0,9.0,0.0,1.0,1949.0,-0.28,0.18,0.23,-0.16,-0.15,0.39,1.75,63.0,61.81,8.44,-3.77,2.31,3,1156
0,144752.0,40.0,5.0,10.0,1.0,2004.0,0.44,-0.03,0.02,-0.07,-0.06,0.28,358.31,59.69,67.44,8.89,-4.63,1.92,3,1156
0,144971.0,28.0,9.0,0.0,1.0,2077.0,-0.01,0.1,0.21,-0.12,-0.05,0.65,352.87,54.25,71.19,7.94,-5.31,2.05,3,1156
0,145191.0,27.0,9.0,0.0,2.0,2187.0,-0.59,-0.02,0.01,0.0,-0.01,0.15,347.5,48.69,74.31,6.62,-6.37,1.79,3,1156
0,145410.0,25.0,9.0,0.0,1.0,2205.0,0.39,0.21,0.15,-0.06,-0.05,0.31,346.37,47.94,75.0,7.67,-6.12,1.85,3,1156
0,145626.0,35.0,13.0,0.0,1.0,1737.0,-0.4,-0.27,0.14,0.01,-0.01,-0.03,343.87,45.19,76.0,6.56,-6.97,1.81,3,1156
0,145848.0,2332.0,9.0,13.0,0.0,2093.0,-0.92,-0.35,-0.03,0.03,-0.01,-0.29,345.0,46.75,76.19,6.22,-6.88,1.55,3,1156
0,146069.0,1959.0,13.0,11.0,1.0,1543.0,-0.07,0.12,0.14,0.09,0.06,-0.89,353.75,55.5,72.12,8.01,-5.15,1.84,3,1156
0,146284.0,2367.0,8.0,14.0,1.0,1901.0,-0.31,0.1,0.07,0.04,0.0,-0.26,359.62,61.38,67.56,8.3,-4.2,1.85,3,1156
0,146501.0,1084.0,17.0,4.0,1.0,1385.0,-0.42,0.04,0.17,0.08,0.07,-0.4,4.19,65.81,61.38,8.51,-3.48,2.09,3,1156
0,146723.0,27.0,8.0,0.0,2.0,1900.0,0.0,0.06,0.12,0.03,0.13,-0.19,7.0,67.87,55.44,9.08,-2.97,2.21,3,1156
0,146942.0,26.0,6.0,0.0,2.0,1880.0,0.6,0.11,0.04,-0.05,-0.04,0.53,5.87,66.56,56.88,9.4,-3.19,2.23,3,1156
0,147162.0,27.0,9.0,0.0,0.0,1956.0,0.32,0.2,0.03,-0.08,-0.04,0.98,356.44,58.0,67.0,8.64,-4.57,2.05,3,1156
0,147377.0,26.0,7.0,1.0,2.0,2107.0,-0.46,-0.02,0.34,-0.1,-0.05,0.84,346.25,48.31,73.75,7.71,-6.34,2.01,3,1156
0,147598.0,29.0,9.0,0.0,2.0,2236.0,1.0,0.2,0.04,-0.03,-0.03,0.92,336.0,38.06,77.81,6.99,-7.39,1.66,3,1156
0,147817.0,1805.0,17.0,11.0,1.0,1961.0,-0.59,0.06,0.25,0.07,-0.01,0.49,325.94,28.44,78.81,3.88,-8.38,2.08,3,1156
0,148032.0,3435.0,11.0,26.0,2.0,1915.0,-0.25,0.12,0.21,0.0,-0.04,-0.57,326.06,28.75,78.62,4.46,-8.3,1.9,3,1156
0,148251.0,3597.0,12.0,27.0,0.0,1775.0,-0.57,0.34,0.31,0.14,0.09,-0.94,335.5,38.13,76.75,5.48,-7.16,2.08,3,1156
0,148467.0,2331.0,9.0,17.0,0.0,1589.0,0.53,0.22,0.06,0.1,0.07,-1.21,349.56,51.69,70.25,8.89,-5.3,2.44,3,1156
0,148683.0,29.0,10.0,0.0,1.0,1461.0,-0.41,-0.11,-0.31,0.12,-0.01,-0.66,359.0,60.31,60.75,8.1,-4.34,2.05,3,1156
0,148900.0,37.0,0.0,0.0,1.0,1721.0,-0.88,0.0,0.23,0.18,0.11,-0.76,5.06,65.94,49.44,8.08,-2.96,2.84,3,1156
0,149121.0,55.0,6.0,0.0,1.0,1800.0,0.94,-0.29,-0.05,-0.0,-0.09,-0.18,10.56,69.37,35.94,10.12,-2.3,2.72,3,1156
0,149340.0,859.0,7.0,5.0,1.0,1853.0,0.07,-0.14,-0.35,-0.13,-0.12,0.14,10.63,70.31,42.06,9.31,-2.35,2.08,3,1156
0,149565.0,667.0,7.0,3.0,2.0,1885.0,-0.54,0.02,0.1,0.01,0.04,0.1,8.44,68.87,46.69,8.6,-2.54,2.53,3,1156
0,149784.0,803.0,8.0,13.0,0.0,1891.0,0.76,-0.2,0.16,-0.1,-0.13,0.09,9.13,69.31,46.06,9.94,-2.69,2.56,3,1156
0,150008.0,1165.0,19.0,6.0,2.0,1903.0,0.24,0.0,0.11,-0.14,-0.04,0.96,2.87,64.06,59.69,9.03,-3.78,2.27,3,1156
0,150229.0,1293.0,6.0,12.0,9.0,2074.0,-0.26,-0.06,0.12,-0.07,-0.05,0.97,351.31,53.06,70.37,7.63,-5.67,2.04,3,1156
0,150445.0,1415.0,9.0,9.0,1.0,2245.0,-0.23,0.01,0.28,-0.04,-0.05,0.81,341.0,43.31,74.62,6.49,-6.86,2.17,3,1156
0,150666.0,2043.0,17.0,13.0,0.0,1821.0,-0.89,-0.12,0.24,-0.02,-0.06,0.22,333.75,36.69,76.94,4.96,-7.78,2.01,3,1156
0,150880.0,1851.0,534.0,4.0,1.0,2193.0,-0.37,0.07,0.08,-0.0,-0.02,-0.63,336.44,39.19,76.69,6.16,-7.33,1.8,3,1156
0,151095.0,1967.0,111.0,11.0,10.0,1963.0,0.75,0.38,-0.01,-0.0,0.07,-1.16,347.81,50.38,73.37,7.19,-5.71,1.7,3,1156
0,151314.0,1891.0,11.0,4.0,1.0,1821.0,0.62,0.15,0.06,0.06,0.0,-0.97,0.69,62.19,64.69,9.29,-3.98,2.01,3,1156
0,151531.0,1402.0,17.0,7.0,1.0,1321.0,1.08,0.37,-0.01,0.08,0.07,-0.58,9.31,69.81,51.44,10.3,-2.21,2.09,3,1156
0,151749.0,535.0,9.0,2.0,0.0,1818.0,0.0,-0.12,0.21,0.04,0.07,-0.14,12.38,71.25,41.38,9.29,-2.19,2.57,3,1156
0,151968.0,585.0,7.0,0.0,1.0,1845.0,-0.06,-0.07,0.12,0.01,-0.01,0.02,12.81,71.44,40.13,9.22,-2.08,2.5,3,1156
0,152186.0,783.0,7.0,9.0,14.0,1849.0,0.09,-0.08,0.08,-0.03,-0.04,0.06,12.69,71.37,40.88,9.38,-2.12,2.44,3,1156
0,152403.0,847.0,8.0,3.0,1.0,1851.0,0.0,-0.06,0.16,-0.01,-0.01,-0.01,12.38,71.19,42.31,9.28,-2.18,2.49,3,1156
0,152624.0,756.0,0.0,3.0,0.0,1853.0,-0.07,-0.03,0.09,0.01,0.02,-0.02,12.5,71.25,42.44,9.21,-2.16,2.42,3,1156
0,152845.0,484.0,8.0,2.0,1.0,1851.0,-0.04,-0.08,0.02,0.01,0.03,-0.04,12.88,71.31,41.19,9.24,-2.14,2.38,3,1156
0,153067.0,444.0,21.0,1.0,1.0,1845.0,0.0,-0.03,0.05,-0.01,0.01,-0.04,13.56,71.56,39.44,9.3,-1.99,2.44,3,1156
0,153282.0,409.0,8.0,2.0,88.0,1851.0,0.17,-0.06,0.08,-0.01,0.0,0.0,13.94,71.81,38.88,9.49,-1.98,2.46,3,1156
0,153501.0,865.0,1.0,6.0,2.0,1865.0,-0.05,-0.05,0.12,-0.03,-0.06,0.1,12.69,71.37,42.94,9.29,-2.21,2.46,3,1156
0,153723.0,1126.0,8.0,5.0,1.0,2040.0,0.16,-0.08,0.0,-0.06,-0.03,0.4,10.13,69.44,50.06,9.54,-2.66,2.22,3,1156
0,153942.0,2153.0,9.0,17.0,1.0,2026.0,-0.08,0.15,0.2,-0.05,-0.09,0.2,6.56,66.87,57.94,8.93,-3.12,2.23,3,1156
0,154159.0,2636.0,15.0,20.0,9.0,1371.0,-0.25,-0.01,0.0,0.0,-0.01,-0.0,5.5,66.06,60.75,8.79,-3.43,2.09,3,1156
0,154380.0,1517.0,9.0,12.0,1.0,2117.0,0.23,-0.08,0.3,0.01,0.01,0.24,3.81,64.37,61.56,9.08,-3.8,2.31,3,1156
0,154599.0,1468.0,7.0,10.0,2.0,2207.0,-0.41,0.08,0.2,-0.05,-0.02,0.84,356.81,57.94,67.62,7.89,-4.72,2.18,3,1156
0,154817.0,1609.0,9.0,1.0,1.0,2355.0,-0.21,0.13,0.23,-0.05,-0.04,0.85,346.56,48.25,73.5,7.1,-6.12,2.08,3,1156
0,155034.0,1727.0,19.0,11.0,1.0,2536.0,0.25,0.31,0.11,0.0,-0.01,0.95,336.37,38.44,76.44,5.43,-7.36,1.9,3,1156
0,155254.0,1613.0,8.0,9.0,1.0,2595.0,-0.08,0.18,0.29,-0.0,0.03,0.71,326.0,28.37,78.0,4.51,-8.28,2.08,3,1156
0,155476.0,2028.0,155.0,10.0,0.0,2644.0,-0.56,-0.04,0.22,0.01,-0.03,0.23,319.37,21.75,78.31,3.05,-8.97,2.06,3,1156
0,155697.0,2328.0,431.0,17.0,1.0,2615.0,-0.11,0.03,0.19,-0.01,-0.02,-0.38,320.0,22.37,78.25,3.65,-8.82,2.04,3,1156
0,155918.0,2205.0,1.0,19.0,0.0,2601.0,-0.08,0.23,0.25,-0.02,-0.01,-0.89,327.94,30.31,77.69,4.86,-8.04,2.05,3,1156
0,156139.0,2041.0,9.0,12.0,1.0,2291.0,-0.01,-0.01,0.19,0.02,0.03,-1.23,340.87,43.0,75.5,6.67,-6.95,1.97,3,1156
0,156359.0,2327.0,10.0,17.0,1.0,2153.0,0.5,0.18,0.2,0.04,0.09,-1.07,355.44,56.56,69.25,8.68,-4.87,2.11,3,1156
0,156579.0,2335.0,0.0,17.0,0.0,2038.0,0.33,0.14,0.19,0.08,0.05,-0.77,5.87,65.94,59.25,9.29,-3.29,2.23,3,1156
0,156793.0,626.0,17.0,3.0,5.0,2020.0,0.04,-0.02,0.08,0.07,0.12,-0.22,11.0,69.94,48.44,9.64,-2.47,2.28,3,1156
0,157012.0,238.0,9.0,0.0,429.0,1975.0,0.28,-0.06,0.16,0.01,0.06,-0.17,13.44,70.87,39.81,9.37,-2.14,2.66,3,1156
0,157231.0,456.0,22.0,10.0,584.0,1991.0,-0.03,-0.02,0.07,0.0,-0.01,0.0,14.0,71.19,39.06,9.24,-2.01,2.52,3,1156
0,157449.0,373.0,9.0,0.0,587.0,1979.0,-0.01,0.01,0.07,0.0,-0.0,-0.01,14.0,71.19,39.0,9.26,-1.97,2.52,3,1156
0,157667.0,436.0,21.0,1.0,588.0,1957.0,0.0,-0.01,0.01,0.01,0.0,-0.01,14.13,71.25,38.69,9.28,-1.98,2.46,3,1156
0,157883.0,398.0,15.0,1.0,580.0,1991.0,0.01,-0.02,0.06,-0.01,-0.01,0.0,14.19,71.25,38.63,9.31,-2.0,2.51,3,1156
0,158103.0,419.0,9.0,11.0,509.0,1955.0,0.02,-0.03,0.0,-0.02,-0.01,0.0,14.25,71.25,38.75,9.3,-1.99,2.48,3,1156
0,158324.0,521.0,9.0,3.0,105.0,1900.0,0.03,-0.04,0.01,-0.01,-0.02,0.03,14.13,71.31,39.94,9.32,-2.05,2.41,3,1156
0,158544.0,599.0,9.0,6.0,1.0,2020.0,0.04,-0.05,0.07,-0.01,-0.01,0.01,14.06,71.37,40.63,9.34,-2.08,2.44,3,1156
0,158767.0,862.0,10.0,5.0,2.0,2014.0,0.37,-0.06,0.18,-0.05,-0.07,0.11,13.56,71.25,43.19,9.65,-2.22,2.47,3,1156
0,158987.0,1994.0,19.0,13.0,1.0,1384.0,0.25,-0.1,0.03,-0.07,-0.09,0.42,9.88,68.75,53.81,9.07,-3.03,2.11,3,1156
0,159206.0,3070.0,192.0,20.0,0.0,1372.0,0.06,0.06,0.16,0.01,-0.06,0.27,5.69,65.56,61.25,8.98,-3.5,2.1,3,1156
0,159422.0,2429.0,13.0,7.0,1.0,1445.0,-0.18,-0.07,0.26,0.0,0.06,0.38,2.19,62.5,64.44,8.51,-4.15,2.21,3,1156
0,159638.0,2237.0,17.0,6.0,1.0,1549.0,0.13,0.0,0.2,-0.04,-0.01,0.75,356.37,57.0,68.56,9.08,-4.83,2.03,3,1156
0,159854.0,1997.0,9.0,10.0,4.0,2237.0,-0.15,-0.16,0.02,-0.06,-0.09,0.81,346.31,47.38,74.06,7.98,-6.3,1.83,3,1156
0,160073.0,1900.0,9.0,12.0,4.0,2106.0,-0.49,-0.07,0.03,0.02,-0.03,0.42,338.75,40.06,76.19,5.82,-7.36,1.82,3,1156
0,160287.0,1337.0,9.0,17.0,2.0,2456.0,0.71,0.16,0.05,0.01,-0.01,0.42,333.56,35.25,76.62,6.37,-7.62,1.89,3,1156
0,160504.0,1339.0,9.0,1.0,10.0,2636.0,0.12,0.09,0.21,0.0,-0.01,0.42,328.19,30.19,77.0,4.6,-8.25,2.08,3,1156
0,160723.0,2278.0,8.0,17.0,5.0,2645.0,-0.7,0.23,0.02,-0.03,-0.02,0.05,324.94,27.19,77.5,3.77,-8.28,1.9,3,1156
0,160936.0,2355.0,9.0,17.0,1.0,2585.0,0.07,0.21,0.15,0.01,-0.02,-0.28,327.44,29.62,77.56,4.93,-8.1,1.97,3,1156
0,161152.0,2355.0,8.0,18.0,1.0,1796.0,-0.28,0.25,0.03,-0.02,-0.01,-0.83,334.25,36.19,76.81,5.51,-7.44,1.83,3,1156
0,161367.0,2447.0,9.0,17.0,1.0,2187.0,-0.08,0.27,0.11,0.03,0.01,-1.26,346.81,48.19,73.69,7.72,-5.92,1.99,3,1156
0,161585.0,2211.0,9.0,13.0,1.0,2019.0,0.03,0.03,-0.03,0.08,0.04,-1.01,0.44,60.63,65.25,8.58,-4.32,1.96,3,1156
0,161802.0,1879.0,19.0,13.0,1.0,1331.0,0.14,0.03,0.15,0.09,0.07,-0.5,10.31,69.06,50.94,9.31,-2.64,2.37,3,1156
0,162018.0,1082.0,8.0,0.0,0.0,2059.0,0.93,0.12,-0.08,-0.05,-0.05,0.18,12.19,70.31,47.0,10.06,-2.29,2.21,3,1156
0,162235.0,982.0,9.0,5.0,5.0,2087.0,0.14,0.0,0.07,-0.03,-0.04,0.72,5.62,65.06,58.13,9.03,-3.5,2.25,3,1156
0,162452.0,1187.0,9.0,5.0,4.0,2175.0,0.31,-0.01,0.12,-0.05,-0.04,0.84,357.0,57.38,66.56,8.53,-4.92,2.21,3,1156
0,162670.0,1311.0,9.0,7.0,1.0,2157.0,0.16,0.22,0.08,-0.09,-0.03,0.97,346.31,47.25,73.19,7.31,-6.21,1.99,3,1156
0,162886.0,1418.0,10.0,7.0,1.0,2455.0,0.38,0.09,0.1,-0.01,-0.05,0.82,335.62,36.88,76.44,6.27,-7.52,1.94,3,1156
0,163103.0,1871.0,5.0,11.0,0.0,1983.0,-0.33,-0.2,0.3,-0.01,-0.0,0.62,326.44,27.94,77.69,4.22,-8.69,2.15,3,1156
0,163323.0,2421.0,971.0,18.0,0.0,2696.0,-0.6,-0.01,0.13,0.01,-0.01,0.2,321.0,22.87,78.19,3.2,-8.86,1.97,3,1156
0,163543.0,2463.0,441.0,18.0,0.0,2557.0,-0.03,-0.06,0.18,-0.01,-0.05,-0.37,321.81,23.69,78.06,3.92,-8.79,1.97,3,1156
0,163758.0,2381.0,155.0,21.0,0.0,2486.0,0.19,0.04,0.1,-0.02,-0.03,-0.57,327.12,29.12,77.5,4.96,-8.31,1.95,3,1156
0,163977.0,2175.0,239.0,12.0,1.0,2326.0,0.31,0.16,0.19,0.01,-0.04,-0.99,336.69,38.69,76.0,6.44,-7.26,2.04,3,1156
0,164197.0,2170.0,275.0,13.0,2.0,2173.0,0.0,0.13,0.08,0.02,0.03,-0.98,348.56,50.13,72.19,7.52,-5.84,2.0,3,1156
0,164417.0,2217.0,9.0,13.0,1.0,2140.0,0.75,0.11,0.05,0.02,-0.0,-0.91,1.06,61.44,63.88,9.37,-4.08,2.11,3,1156
0,164635.0,26.0,9.0,0.0,1.0,2141.0,0.1,-0.11,0.12,0.17,0.14,-0.28,7.0,66.0,52.75,9.07,-3.26,2.54,3,1156
0,164851.0,35.0,8.0,0.0,1.0,2057.0,0.13,-0.07,-0.02,-0.05,-0.02,-0.02,8.25,66.75,48.19,9.15,-2.98,2.6,3,1156
0,165077.0,106.0,9.0,0.0,0.0,2073.0,0.09,-0.02,0.08,-0.01,-0.04,0.07,8.0,66.69,49.31,9.1,-2.96,2.6,3,1156
0,165293.0,620.0,9.0,9.0,0.0,2019.0,0.47,0.08,0.05,-0.1,-0.07,0.52,5.44,65.0,55.19,9.36,-3.31,2.41,3,1156
0,165510.0,840.0,8.0,3.0,1.0,2055.0,0.2,0.03,0.08,-0.06,-0.06,0.85,357.25,57.75,65.12,8.27,-4.82,2.34,3,1156
0,165731.0,1247.0,21.0,7.0,1.0,2165.0,0.24,0.18,0.12,-0.08,-0.04,1.0,346.19,47.44,71.94,7.47,-6.11,2.18,3,1156
0,165944.0,2111.0,17.0,14.0,0.0,1838.0,-0.41,0.02,0.12,-0.06,-0.12,0.71,335.5,36.94,76.19,5.63,-7.51,1.98,3,1156
0,166161.0,2291.0,13.0,16.0,8.0,2463.0,-0.66,-0.05,0.01,-0.05,-0.02,-0.17,331.19,33.06,77.75,4.87,-8.13,1.78,3,1156
0,166380.0,2222.0,179.0,13.0,1.0,2361.0,-0.06,0.05,0.14,0.08,-0.01,-0.51,335.81,38.06,76.81,5.98,-7.46,1.9,3,1156
