class,time,fsr1,fsr2,fsr3,fsr4,angle,accx,accy,accz,gyro1,gyro2,gyro3,orient1,orient2,orient3,acc2x,acc2y,acc2z,participant,serialnumber
0,65824.0,26.0,8.0,0.0,2.0,1799.0,0.06,-0.16,0.07,0.01,-0.02,0.01,41.25,81.87,82.94,9.77,-1.54,0.24,6,2147
0,66040.0,27.0,9.0,0.0,1.0,1829.0,-0.06,-0.05,0.12,0.01,-0.01,0.04,40.44,81.37,84.37,9.62,-1.51,0.26,6,2147
0,66259.0,27.0,8.0,0.0,13.0,1864.0,-0.07,-0.05,0.06,-0.01,0.0,0.03,40.0,80.87,84.06,9.6,-1.59,0.22,6,2147
0,66479.0,25.0,8.0,1.0,2.0,1893.0,-0.09,-0.04,0.11,0.0,-0.0,-0.0,39.75,80.69,83.56,9.58,-1.62,0.29,6,2147
0,66701.0,22.0,9.0,0.0,0.0,1935.0,1.23,-0.05,-0.16,-0.15,-0.34,-0.33,41.13,81.81,90.56,12.3,-1.77,-0.24,6,2147
0,66921.0,25.0,28.0,0.0,0.0,1787.0,-0.34,-0.1,0.17,0.05,0.06,0.05,41.0,81.75,90.94,9.36,-1.5,0.14,6,2147
0,67133.0,25.0,9.0,1.0,0.0,1874.0,0.2,-0.03,-0.01,-0.01,-0.01,0.11,40.63,81.44,89.5,9.9,-1.48,0.0,6,2147
0,67349.0,27.0,9.0,0.0,1.0,1951.0,-0.68,0.01,0.16,0.07,0.07,0.47,36.81,77.81,89.37,8.9,-2.05,0.18,6,2147
0,67566.0,27.0,14.0,0.0,0.0,1951.0,-0.28,-0.05,0.16,0.03,0.01,-0.08,33.0,74.56,87.12,9.17,-2.64,0.29,6,2147
0,67783.0,27.0,7.0,0.0,0.0,2008.0,-0.4,-0.09,0.14,0.05,0.12,-0.03,34.25,76.06,83.44,9.11,-2.44,0.41,6,2147
0,68001.0,27.0,9.0,0.0,1.0,1959.0,-0.25,-0.08,0.08,-0.0,-0.02,0.04,33.88,75.75,81.81,9.25,-2.47,0.43,6,2147
0,68219.0,26.0,8.0,0.0,2.0,1978.0,-0.03,0.0,0.07,-0.01,-0.02,0.08,33.69,75.56,82.56,9.45,-2.43,0.38,6,2147
0,68434.0,26.0,7.0,0.0,0.0,2013.0,-0.04,-0.02,0.14,-0.0,-0.02,-0.0,33.19,75.12,83.37,9.44,-2.57,0.36,6,2147
0,68657.0,27.0,9.0,1.0,1.0,1973.0,-0.15,-0.11,0.02,-0.03,-0.06,0.1,32.44,74.37,85.0,9.29,-2.74,0.24,6,2147
0,68880.0,26.0,9.0,0.0,5.0,2004.0,-0.15,0.01,0.09,0.01,0.01,0.02,31.25,73.37,84.69,9.24,-2.76,0.34,6,2147
0,69099.0,27.0,7.0,1.0,0.0,2135.0,-0.14,0.12,0.15,-0.05,-0.01,0.03,30.75,72.94,84.06,9.22,-2.73,0.44,6,2147
0,69316.0,25.0,8.0,0.0,9.0,2099.0,-0.51,0.04,0.19,0.01,0.01,0.01,30.62,72.44,83.62,9.31,-2.98,0.43,6,2147
0,69535.0,27.0,7.0,0.0,5.0,2095.0,-0.84,-0.02,0.0,-0.05,-0.12,-0.07,30.62,72.44,84.25,8.5,-2.95,0.29,6,2147
0,69751.0,31.0,16.0,0.0,0.0,1250.0,-0.27,-0.15,-0.02,-0.03,-0.16,-0.2,34.25,76.12,94.62,9.25,-2.48,-0.22,6,2147
0,69970.0,34.0,14.0,0.0,1.0,1305.0,1.02,0.0,-0.32,0.09,0.01,0.44,32.13,74.62,94.12,10.48,-2.59,-0.51,6,2147
0,70188.0,28.0,17.0,0.0,1.0,2151.0,-0.31,0.04,0.31,0.05,0.1,0.38,25.0,68.25,90.31,8.92,-3.65,0.24,6,2147
0,70402.0,26.0,9.0,0.0,0.0,2245.0,-0.27,0.01,0.07,0.02,0.02,0.39,19.87,63.25,87.62,8.47,-4.39,0.25,6,2147
0,70617.0,25.0,10.0,0.0,1.0,2325.0,-0.05,0.04,0.13,0.04,0.14,0.32,16.19,59.25,86.12,8.35,-4.97,0.47,6,2147
0,70835.0,26.0,9.0,0.0,2.0,2367.0,0.04,0.0,0.04,0.0,0.11,0.54,12.75,55.0,84.75,8.08,-5.6,0.56,6,2147
0,71049.0,27.0,5.0,0.0,0.0,2278.0,-0.36,0.0,0.18,0.0,0.11,0.5,7.31,48.94,84.37,6.99,-6.44,0.81,6,2147
0,71269.0,27.0,11.0,0.0,1.0,2493.0,-0.27,0.08,0.15,0.0,0.03,0.24,3.12,44.13,83.75,6.54,-6.92,0.91,6,2147
0,71484.0,30.0,8.0,0.0,1.0,2631.0,-0.05,0.15,0.18,0.02,0.02,0.39,359.25,40.19,83.62,6.27,-7.28,1.01,6,2147
0,71701.0,26.0,9.0,0.0,1.0,2732.0,-0.75,0.2,0.26,0.06,0.03,0.39,354.12,35.13,83.12,4.86,-7.77,1.22,6,2147
0,71918.0,25.0,8.0,0.0,1.0,2484.0,-1.16,0.34,0.33,0.05,-0.04,-0.15,352.0,34.0,83.19,4.09,-7.84,1.47,6,2147
0,72135.0,28.0,9.0,3.0,1.0,2230.0,0.5,0.2,0.25,-0.02,-0.07,-0.76,358.94,41.19,83.12,6.96,-7.11,1.13,6,2147
0,72348.0,29.0,8.0,0.0,1.0,2217.0,-0.36,0.08,0.23,-0.01,-0.02,-0.65,6.75,49.19,82.81,6.65,-6.16,0.85,6,2147
0,72572.0,43.0,39.0,2.0,1.0,1481.0,0.24,0.27,0.24,-0.06,-0.07,-0.73,15.5,57.81,82.62,8.58,-4.84,0.91,6,2147
0,72789.0,27.0,9.0,0.0,1.0,2155.0,0.01,0.16,0.3,-0.08,-0.08,-0.85,25.44,67.56,82.31,9.07,-3.53,0.79,6,2147
0,73001.0,35.0,21.0,0.0,1.0,1289.0,0.17,0.07,0.11,-0.04,0.03,-0.48,33.88,75.31,80.19,10.23,-2.29,0.42,6,2147
0,73220.0,25.0,9.0,0.0,1.0,2069.0,-0.11,0.0,0.25,0.02,0.05,-0.11,36.0,76.94,74.75,9.56,-2.27,0.55,6,2147
0,73438.0,26.0,9.0,0.0,1.0,2156.0,0.01,-0.03,0.22,-0.01,0.0,-0.06,36.81,77.69,71.31,9.59,-2.01,0.89,6,2147
0,73654.0,25.0,11.0,1.0,0.0,2239.0,-0.03,-0.02,0.09,0.0,-0.02,0.09,36.5,77.44,72.69,9.53,-2.06,0.72,6,2147
0,73872.0,37.0,11.0,0.0,1.0,2268.0,-0.56,-0.13,0.08,0.07,0.09,0.46,33.63,74.87,75.94,8.88,-2.65,0.71,6,2147
0,74090.0,27.0,9.0,0.0,1.0,2391.0,-0.02,-0.01,0.19,0.05,0.05,0.45,28.31,69.94,76.69,9.18,-3.28,0.96,6,2147
0,74303.0,27.0,9.0,0.0,0.0,2454.0,-1.17,0.03,0.26,0.08,0.06,0.41,21.62,63.63,77.62,7.59,-4.25,1.2,6,2147
0,74523.0,27.0,9.0,0.0,1183.0,2293.0,-2.33,0.64,1.2,0.21,0.67,-1.63,27.06,67.94,67.62,6.79,-2.61,2.68,6,2147
0,74745.0,25.0,9.0,0.0,19.0,1965.0,-0.72,-0.09,-0.05,0.06,0.05,0.03,40.13,78.31,54.31,8.88,-1.7,1.1,6,2147
0,74968.0,26.0,7.0,0.0,0.0,1975.0,-0.35,-0.09,0.15,0.0,-0.01,0.05,39.94,78.31,51.06,9.24,-1.64,1.39,6,2147
0,75187.0,26.0,9.0,0.0,7.0,1995.0,-0.11,-0.06,0.15,0.0,-0.06,0.12,39.56,78.19,52.94,9.48,-1.67,1.35,6,2147
0,75402.0,27.0,8.0,0.0,2.0,1989.0,-0.1,0.02,0.15,0.02,-0.03,0.03,38.19,77.5,57.63,9.46,-1.75,1.28,6,2147
0,75621.0,28.0,5.0,0.0,1.0,2002.0,-0.09,-0.09,0.06,-0.01,-0.02,0.03,37.75,77.31,59.25,9.47,-1.93,1.16,6,2147
0,75840.0,31.0,13.0,1.0,2.0,1266.0,0.02,0.13,0.22,-0.03,-0.19,-0.26,39.31,79.25,63.13,9.65,-1.48,1.04,6,2147
0,76055.0,25.0,9.0,0.0,1.0,1947.0,0.11,-0.15,-0.1,-0.02,0.01,0.25,40.69,80.81,66.06,9.79,-1.61,0.53,6,2147
0,76274.0,27.0,9.0,2.0,1.0,2117.0,0.12,0.05,0.1,0.05,0.09,0.31,36.94,77.31,70.25,9.33,-2.0,0.92,6,2147
0,76491.0,26.0,6.0,0.0,6.0,1993.0,0.06,0.02,0.04,0.03,0.06,0.35,34.19,74.81,73.81,9.53,-2.43,0.75,6,2147
0,76705.0,25.0,9.0,0.0,1.0,2101.0,-0.13,-0.04,0.1,0.01,0.02,-0.04,32.31,73.06,73.06,9.24,-2.77,0.93,6,2147
0,76927.0,27.0,9.0,2.0,1.0,2140.0,-0.04,0.04,0.15,-0.02,-0.01,-0.02,32.69,73.31,72.56,9.34,-2.63,0.99,6,2147
0,77143.0,27.0,9.0,0.0,1.0,2007.0,0.77,0.11,0.04,-0.02,-0.02,0.33,31.69,72.31,75.5,10.11,-2.75,0.78,6,2147
0,77358.0,26.0,9.0,1.0,2.0,2159.0,-0.07,0.03,-0.03,-0.05,-0.02,0.58,25.0,65.37,78.5,8.81,-4.01,0.77,6,2147
0,77577.0,29.0,10.0,1.0,3.0,2138.0,-0.09,0.1,0.12,0.04,0.08,0.68,17.25,57.5,80.25,8.13,-5.13,1.02,6,2147
0,77799.0,28.0,17.0,0.0,1.0,2385.0,-0.19,0.02,0.12,0.03,0.01,0.63,9.25,49.75,81.12,7.25,-6.27,1.09,6,2147
0,78017.0,25.0,3.0,0.0,1.0,2568.0,-1.13,0.0,0.16,0.01,-0.01,0.47,1.56,42.25,81.56,6.18,-7.03,1.29,6,2147
0,78239.0,27.0,4.0,0.0,3.0,2540.0,-0.17,0.12,0.2,0.02,-0.01,0.1,358.12,39.75,82.37,5.87,-7.5,1.38,6,2147
0,78458.0,27.0,125.0,0.0,1.0,2533.0,-0.69,0.18,0.22,-0.01,-0.01,0.0,357.06,38.88,82.31,5.45,-7.37,1.24,6,2147
0,78680.0,26.0,83.0,0.0,2.0,2316.0,-0.18,0.15,0.11,-0.06,-0.05,-0.41,0.88,42.63,82.5,6.48,-6.97,1.04,6,2147
0,78896.0,35.0,8.0,0.0,2.0,2271.0,-0.19,0.17,0.22,-0.08,-0.06,-0.68,6.81,48.38,82.75,7.13,-6.28,1.04,6,2147
0,79113.0,29.0,9.0,1.0,3.0,2176.0,0.2,0.19,0.13,-0.07,-0.06,-0.83,17.62,59.0,82.62,8.61,-4.8,0.78,6,2147
0,79330.0,33.0,13.0,1.0,0.0,1388.0,0.37,0.15,0.1,-0.07,0.02,-0.49,26.81,67.5,81.87,9.45,-3.51,0.63,6,2147
0,79550.0,22.0,9.0,0.0,0.0,2231.0,-0.11,0.11,0.34,0.02,0.11,-0.32,30.81,70.75,76.44,9.18,-2.99,0.99,6,2147
0,79769.0,25.0,9.0,0.0,0.0,2205.0,-0.02,0.0,0.09,0.02,0.02,-0.05,33.25,72.75,70.19,9.34,-2.71,1.07,6,2147
0,79993.0,35.0,5.0,0.0,1.0,2219.0,0.1,-0.04,0.1,-0.02,-0.06,0.07,32.88,72.5,70.06,9.46,-2.81,1.1,6,2147
0,80211.0,26.0,5.0,1.0,1.0,2213.0,-0.23,-0.03,0.0,-0.01,-0.05,0.14,30.81,70.75,74.25,9.02,-3.15,0.86,6,2147
0,80429.0,27.0,9.0,0.0,1.0,2027.0,0.24,-0.13,-0.1,0.03,0.06,0.27,29.12,69.31,75.75,9.11,-3.52,0.74,6,2147
0,80651.0,28.0,9.0,0.0,1.0,2119.0,0.84,0.0,-0.15,-0.0,-0.05,0.46,26.31,66.56,76.5,9.51,-3.8,0.86,6,2147
0,80868.0,27.0,9.0,0.0,11.0,2235.0,-0.1,0.04,0.05,0.04,0.06,0.7,17.81,58.38,78.0,8.21,-4.98,1.16,6,2147
0,81089.0,27.0,16.0,0.0,1.0,2331.0,0.04,0.14,0.12,0.01,0.01,0.84,8.0,48.69,79.81,7.4,-6.22,1.26,6,2147
0,81303.0,21.0,5.0,0.0,3.0,2078.0,0.08,-0.15,0.44,0.02,-0.08,0.41,359.31,40.75,81.56,5.57,-7.5,1.26,6,2147
0,81524.0,25.0,829.0,0.0,2.0,2585.0,-0.5,0.11,0.16,-0.02,-0.0,0.14,355.37,37.0,82.06,5.39,-7.65,1.24,6,2147
0,81740.0,14.0,23.0,0.0,5.0,2612.0,-0.53,0.15,0.07,-0.02,0.01,-0.2,356.0,37.31,82.0,5.41,-7.56,1.15,6,2147
0,81958.0,29.0,35.0,2.0,0.0,1687.0,0.3,1.49,0.55,-0.32,-0.21,-3.34,17.94,58.81,80.62,8.69,-3.51,1.37,6,2147
0,82178.0,28.0,7.0,0.0,6.0,1926.0,0.57,-0.51,-0.45,-0.03,0.14,0.12,42.69,81.06,79.06,10.26,-2.0,-0.16,6,2147
0,82396.0,26.0,7.0,5.0,1.0,2087.0,0.08,-0.05,-0.07,0.06,0.12,0.05,40.69,79.0,74.62,9.71,-1.85,0.42,6,2147
0,82611.0,27.0,1.0,0.0,0.0,2117.0,-0.34,-0.06,0.08,0.04,0.05,0.02,39.81,78.37,72.81,9.24,-1.97,0.7,6,2147
0,82828.0,27.0,8.0,0.0,7.0,2153.0,-0.03,-0.09,0.01,0.07,0.05,0.01,39.81,78.37,67.37,9.57,-1.91,0.77,6,2147
0,83048.0,26.0,8.0,0.0,1.0,2262.0,0.0,-0.02,-0.03,0.04,0.01,0.04,37.31,76.31,64.56,9.53,-2.12,0.95,6,2147
0,83262.0,29.0,4.0,0.0,1.0,2235.0,0.77,0.13,0.03,0.01,-0.04,0.3,35.69,75.25,66.81,10.25,-2.27,0.88,6,2147
0,83481.0,33.0,10.0,1.0,1.0,2276.0,-0.3,0.02,0.0,0.09,0.07,0.47,29.37,69.44,70.5,8.88,-3.2,1.14,6,2147
0,83700.0,31.0,17.0,2.0,1.0,2296.0,-0.14,-0.01,0.04,0.01,0.0,0.39,23.81,64.37,72.44,8.69,-4.05,1.32,6,2147
0,83916.0,27.0,9.0,0.0,0.0,2407.0,-0.13,0.11,0.09,0.03,0.05,0.52,18.37,59.0,74.19,8.24,-4.77,1.47,6,2147
0,84138.0,26.0,9.0,1.0,3.0,2494.0,-0.36,0.08,0.1,-0.01,-0.01,0.52,11.69,52.31,76.0,7.36,-5.77,1.55,6,2147
0,84354.0,25.0,7.0,0.0,1.0,2614.0,-0.46,0.09,0.23,-0.02,-0.05,0.33,5.75,46.44,77.62,6.64,-6.5,1.67,6,2147
0,84569.0,27.0,9.0,2.0,2.0,2571.0,-0.9,0.23,0.1,-0.02,-0.03,0.0,3.44,44.88,79.0,6.02,-6.57,1.42,6,2147
0,84786.0,27.0,10.0,0.0,1.0,2350.0,-0.82,0.24,-0.19,-0.08,-0.03,-0.82,8.0,49.13,78.62,6.64,-5.97,1.06,6,2147
0,85003.0,27.0,15.0,0.0,6.0,2199.0,0.02,0.2,-0.02,-0.07,-0.08,-1.05,20.81,61.63,76.87,8.65,-4.32,1.02,6,2147
0,85216.0,23.0,9.0,0.0,1.0,2261.0,1.07,0.47,-0.03,-0.1,-0.04,-0.74,31.94,72.12,73.75,9.34,-2.55,0.85,6,2147
0,85433.0,28.0,9.0,1.0,9.0,2333.0,-0.5,-0.15,-0.09,-0.0,0.11,-0.14,36.56,75.75,68.5,9.0,-2.39,0.79,6,2147
0,85652.0,37.0,17.0,0.0,0.0,2134.0,0.33,0.1,-0.02,0.01,-0.04,0.38,36.0,75.12,69.06,9.81,-2.24,0.87,6,2147
0,85867.0,27.0,9.0,0.0,1.0,2195.0,0.15,0.13,-0.02,0.04,0.06,0.64,29.56,69.12,74.06,9.3,-3.27,0.93,6,2147
0,86086.0,27.0,9.0,1.0,2.0,2701.0,0.04,0.22,0.11,0.03,0.03,0.75,20.94,60.81,76.81,8.59,-4.44,1.17,6,2147
0,86307.0,28.0,11.0,0.0,7.0,2927.0,-0.48,0.24,0.13,0.01,0.05,0.86,10.63,50.38,78.25,7.06,-5.87,1.39,6,2147
0,86524.0,27.0,9.0,0.0,1.0,2785.0,-0.73,0.23,0.19,0.03,0.05,0.82,0.56,40.13,79.44,5.59,-7.13,1.55,6,2147
0,86744.0,27.0,9.0,0.0,3.0,2923.0,-0.81,0.15,0.04,0.02,0.0,0.07,353.75,33.38,79.62,4.58,-7.89,1.51,6,2147
0,86962.0,23.0,9.0,1.0,3710.0,3109.0,-1.78,1.09,0.16,0.27,0.13,-2.01,0.94,40.5,76.06,4.73,-6.0,1.98,6,2147
0,87185.0,27.0,7.0,0.0,1725.0,2212.0,3.08,0.44,-0.42,-0.16,-0.42,-1.89,33.5,71.37,54.06,11.86,-1.83,1.91,6,2147
0,87404.0,26.0,9.0,0.0,2579.0,1939.0,-0.41,0.09,0.2,0.05,0.04,-0.01,38.56,75.75,47.63,9.09,-1.69,1.83,6,2147
0,87618.0,26.0,9.0,10.0,3020.0,1933.0,-0.25,0.01,0.13,0.0,0.01,-0.0,38.94,75.94,46.06,9.34,-1.68,1.76,6,2147
0,87837.0,26.0,6.0,0.0,853.0,1967.0,-0.23,0.0,-0.02,-0.01,-0.03,0.03,38.69,75.87,47.94,9.27,-1.78,1.64,6,2147
0,88055.0,25.0,9.0,0.0,0.0,2074.0,-0.43,-0.04,-0.07,-0.06,-0.12,-0.17,39.88,77.56,49.63,9.14,-1.64,1.28,6,2147
0,88270.0,35.0,17.0,6.0,1.0,1223.0,0.74,0.08,0.27,-0.06,-0.3,-0.18,42.75,81.0,53.56,10.43,-1.13,1.15,6,2147
0,88489.0,31.0,13.0,0.0,1.0,1241.0,0.68,0.15,0.07,0.07,0.03,0.32,40.13,78.94,61.38,9.98,-1.77,0.63,6,2147
0,88705.0,25.0,9.0,0.0,0.0,2171.0,-0.07,0.0,0.04,-0.02,-0.04,0.1,36.75,76.0,64.44,9.43,-2.13,1.06,6,2147
0,88918.0,27.0,0.0,0.0,0.0,2182.0,0.39,0.04,0.06,0.02,0.06,0.22,35.63,75.0,66.19,9.74,-2.33,0.99,6,2147
0,89137.0,27.0,9.0,0.0,1.0,2175.0,-0.18,0.01,0.04,0.06,0.12,0.39,32.0,71.75,69.94,9.12,-2.86,1.09,6,2147
0,89354.0,27.0,23.0,0.0,0.0,2223.0,-0.21,0.16,0.15,0.05,0.06,0.4,27.94,67.81,71.44,8.85,-3.36,1.34,6,2147
0,89570.0,26.0,16.0,0.0,1.0,2342.0,0.11,0.05,0.01,0.02,-0.01,0.37,24.31,64.5,73.37,9.03,-3.99,1.26,6,2147
0,89790.0,29.0,9.0,0.0,1.0,2237.0,0.03,0.12,0.12,0.03,0.04,0.6,17.94,58.25,74.94,8.42,-4.85,1.48,6,2147
0,90011.0,27.0,9.0,0.0,1.0,2590.0,0.36,0.19,0.03,0.01,0.03,0.72,9.56,50.0,76.5,7.87,-5.92,1.49,6,2147
0,90227.0,27.0,9.0,0.0,1.0,2751.0,-0.21,0.28,0.07,-0.03,0.01,0.77,359.56,39.88,78.31,6.08,-7.08,1.59,6,2147
0,90446.0,27.0,378.0,0.0,0.0,2805.0,-0.77,0.19,0.4,-0.0,-0.03,0.3,352.94,34.0,79.87,4.68,-7.82,1.82,6,2147
0,90663.0,26.0,277.0,0.0,0.0,2761.0,0.21,0.31,0.05,-0.04,-0.03,-0.33,353.69,34.5,80.0,5.62,-7.7,1.51,6,2147
0,90879.0,27.0,4.0,0.0,2.0,2531.0,-0.67,0.27,0.11,-0.03,-0.03,-0.7,359.19,40.0,79.81,5.63,-7.12,1.44,6,2147
0,91098.0,29.0,9.0,1.0,3.0,2471.0,-0.12,0.37,0.01,-0.05,-0.04,-0.98,10.19,50.88,79.0,7.49,-5.69,1.19,6,2147
0,91311.0,27.0,9.0,0.0,2.0,2216.0,-0.18,0.33,0.14,-0.09,-0.09,-0.82,20.94,61.31,78.0,8.42,-4.26,1.12,6,2147
0,91526.0,33.0,10.0,0.0,0.0,1330.0,0.71,0.21,0.1,-0.09,-0.01,-0.47,30.19,69.75,76.81,9.93,-3.04,0.87,6,2147
0,91744.0,27.0,8.0,0.0,1.0,2428.0,0.24,0.08,0.08,0.02,0.06,-0.15,33.75,72.56,72.94,9.26,-2.65,0.97,6,2147
0,91960.0,27.0,8.0,0.0,1.0,2533.0,0.11,0.07,0.02,0.01,-0.0,0.05,33.81,72.69,72.31,9.48,-2.69,0.91,6,2147
0,92172.0,38.0,11.0,0.0,2.0,2517.0,-0.1,0.06,0.03,0.04,0.07,0.38,31.5,70.81,74.0,9.41,-3.04,0.88,6,2147
0,92395.0,28.0,9.0,2.0,0.0,2591.0,0.03,0.1,0.13,0.05,0.06,0.6,25.31,64.87,75.44,8.89,-3.97,1.18,6,2147
